sep=;
ACCELEROMETER X (m/s²);ACCELEROMETER Y (m/s²);ACCELEROMETER Z (m/s²);GRAVITY X (m/s²);GRAVITY Y (m/s²);GRAVITY Z (m/s²);LINEAR ACCELERATION X (m/s²);LINEAR ACCELERATION Y (m/s²);LINEAR ACCELERATION Z (m/s²);GYROSCOPE X (rad/s);GYROSCOPE Y (rad/s);GYROSCOPE Z (rad/s);LIGHT (lux);MAGNETIC FIELD X (μT);MAGNETIC FIELD Y (μT);MAGNETIC FIELD Z (μT);ORIENTATION Z (azimuth °);ORIENTATION X (pitch °);ORIENTATION Y (roll °);PROXIMITY (i);ATMOSPHERIC PRESSURE (hPa);SOUND LEVEL (dB);LOCATION Latitude : ;LOCATION Longitude : ;LOCATION Altitude ( m);LOCATION Altitude-google ( m);LOCATION Altitude-atmospheric pressure ( m);LOCATION Speed ( Kmh);LOCATION Accuracy ( m);LOCATION ORIENTATION (°);Satellites in range;Time since start in ms ;YYYY-MO-DD HH-MI-SS_SSS
0.2131;3.4573;9.9841;0.219;2.8846;9.3703;-0.1305;0.1945;0.2332;0.0397;0.1553;0.1097;8.0;11.7;-37.92;-51.72;212.04;-17.11;-1.34;3.1;997.01;24.058;55.701347;13.169365;239.35;NaN;;;51.658066;;0 / 0;48;2020-12-03 17:23:03:831
-0.838;1.4078;10.3097;-0.348;1.9414;9.6063;-0.8037;-0.0834;-0.362;0.6017;-0.4141;-0.5519;10.0;15.24;-29.82;-53.4;215.17;-11.11;1.62;3.1;997.01;23.428;55.701347;13.169365;239.35;NaN;;;51.658066;;0 / 0;548;2020-12-03 17:23:04:331
2.5643;1.1852;9.4023;2.5562;2.3232;9.1782;0.008;-1.138;0.2241;-0.347;-0.2455;-1.613;22.0;4.8;-28.98;-54.96;230.84;-13.7;-15.56;3.1;996.95;20.901;55.701347;13.169365;239.35;NaN;;;51.658066;;0 / 0;1048;2020-12-03 17:23:04:831
8.8037;5.7367;6.5244;8.2388;4.5095;2.8208;-0.2754;0.5256;1.2614;-0.0807;-2.6028;0.2624;77.0;-25.5;-30.66;-37.92;248.46;-27.38;-71.1;3.1;996.94;28.547;55.701347;13.169365;239.35;NaN;;;51.658066;;0 / 0;1548;2020-12-03 17:23:05:331
8.5164;0.5124;-0.589;9.3496;0.5531;2.9066;-0.103;-1.9274;3.5436;-0.2682;-0.2962;0.541;49.0;-38.52;-8.22;-30.36;257.94;-5.25;-73.39;3.1;996.99;54.95;55.701347;13.169365;239.35;NaN;;;51.658066;;0 / 1;2051;2020-12-03 17:23:05:834
1.9777;7.0296;-1.3983;6.0923;7.5491;1.4369;-1.9119;1.1421;0.9286;0.8515;-1.9986;-2.3649;27.0;-26.88;-35.76;-22.62;274.65;-50.34;-76.73;0.0;997.01;51.363;55.701347;13.169365;239.35;NaN;;;51.658066;;0 / 1;2548;2020-12-03 17:23:06:331
4.7742;4.2043;1.0224;1.4805;9.6942;0.0398;-0.5372;0.9364;0.3888;0.1356;0.5432;0.0962;0.0;-8.28;-46.02;-13.74;275.51;-81.31;-88.46;0.0;997.11;66.859;55.701347;13.169365;239.35;NaN;;;51.658066;;0 / 1;3048;2020-12-03 17:23:06:831
0.8619;10.0009;-0.3831;0.352;9.6892;-1.4716;0.4214;-0.0594;0.9401;0.5858;-0.2864;0.0352;0.0;-2.82;-46.08;-5.88;201.17;-82.53;-166.75;0.0;997.04;71.453;55.701347;13.169365;239.35;NaN;;;51.658066;;0 / 1;3548;2020-12-03 17:23:07:331
-0.5842;9.7184;0.091;-0.2703;9.7997;-0.2498;0.4068;-1.1301;-0.162;-0.559;0.2707;-0.2666;0.0;1.32;-44.4;-10.56;133.73;-87.85;132.74;0.0;997.06;53.036;55.701347;13.169365;239.35;NaN;;;51.658066;;0 / 1;4048;2020-12-03 17:23:07:831
1.0152;9.218;-0.826;-0.187;9.7903;-0.5344;1.9276;0.3902;-1.2517;0.6249;-0.0787;0.1127;0.0;0.24;-43.14;-6.3;166.31;-86.69;160.71;0.0;997.03;43.495;55.701347;13.169365;239.35;NaN;;;51.658066;;0 / 1;4548;2020-12-03 17:23:08:331
0.7159;6.7183;-3.0551;0.21;9.7017;-1.4149;0.5059;-2.9834;-1.6402;-1.0477;-0.1288;-0.1438;0.0;1.68;-44.76;-4.68;173.95;-81.61;-171.56;0.0;997.02;46.406;55.701347;13.169365;239.35;NaN;;;51.658066;;0 / 1;5048;2020-12-03 17:23:08:831
-0.7686;14.9379;-0.4956;-0.3242;9.7951;0.3465;-2.1539;0.3877;2.3471;-0.5284;-0.0408;0.1341;0.0;0.72;-42.9;-12.42;45.44;-87.23;43.1;0.0;996.99;49.925;55.701347;13.169365;239.35;NaN;;;51.658066;;0 / 1;5548;2020-12-03 17:23:09:331
-1.0559;9.3592;-0.0144;0.4441;9.6381;-1.7548;-0.7266;0.4322;1.319;0.521;-0.7513;0.1469;0.0;-1.86;-46.14;-7.32;193.99;-79.36;-165.8;0.0;996.98;56.081;55.701347;13.169365;239.35;NaN;;;51.658066;;0 / 1;6048;2020-12-03 17:23:09:831
-1.9154;8.8756;0.8332;-0.3498;9.8004;-0.0245;-1.513;-1.0014;0.7356;0.4233;0.4741;0.4554;0.0;-5.94;-42.6;-19.5;114.83;-87.54;92.49;0.0;997.0;59.783;55.701347;13.169365;239.35;NaN;;;51.658066;;0 / 1;6548;2020-12-03 17:23:10:331
0.3137;10.1709;-0.7542;0.182;9.7474;-1.0603;0.5674;-0.1272;0.4306;0.3598;-0.3188;0.2215;0.0;-11.04;-51.12;-23.52;208.67;-83.7;-170.26;0.0;996.99;62.938;55.701347;13.169365;239.35;NaN;;;51.658066;;0 / 1;7049;2020-12-03 17:23:10:832
-1.336;10.2786;-0.8715;0.0953;9.7849;-0.6461;-1.5534;2.3972;0.2822;-0.9304;0.0423;-0.087;0.0;-16.5;-53.46;-28.08;214.63;-86.18;-171.61;0.0;997.02;53.52;55.701347;13.169365;239.35;NaN;;;51.658066;;0 / 1;7548;2020-12-03 17:23:11:331
2.5403;10.056;-0.565;-0.121;9.7831;-0.668;2.6613;0.2729;0.103;0.4697;-1.1092;0.1372;0.0;-23.4;-63.6;-33.9;201.58;-86.03;169.73;0.0;997.02;55.866;55.701347;13.169365;239.35;NaN;;;51.658066;;0 / 2;8048;2020-12-03 17:23:11:831
-0.3951;10.9586;-2.095;0.4271;9.6805;-1.5088;-0.8222;1.2781;-0.5862;-0.0679;-0.5258;0.4408;0.0;-32.34;-60.12;-19.86;241.12;-80.8;-164.19;0.0;997.03;51.83;55.701347;13.169365;239.35;NaN;;;51.658066;;0 / 2;8550;2020-12-03 17:23:12:333
-2.1165;8.9953;0.1868;-0.6826;9.7794;-0.2612;-1.9751;-0.7266;0.4814;0.1069;-0.0036;-0.1114;0.0;-28.26;-56.04;-27.78;158.13;-85.73;110.94;0.0;997.01;50.176;55.701347;13.169365;239.35;NaN;;;51.658066;;0 / 2;9048;2020-12-03 17:23:12:831
0.4597;10.5228;-0.838;-0.6375;9.7599;-0.7128;1.0972;0.7629;-0.1252;0.1905;-0.2589;0.2251;0.0;-18.36;-52.44;-26.7;172.95;-84.4;138.19;0.0;997.01;55.664;55.701347;13.169365;239.35;NaN;;;51.658066;;0 / 2;9548;2020-12-03 17:23:13:331
0.1101;7.4845;-2.4446;-0.2986;9.7286;-1.1981;0.4087;-2.2441;-1.2464;-0.5963;-0.1086;-0.2238;0.0;-18.9;-48.72;-11.7;214.89;-82.77;166.01;0.0;997.01;50.014;55.701347;13.169365;239.35;NaN;;;51.658066;;0 / 2;10049;2020-12-03 17:23:13:832
0.4765;10.0392;-0.4884;-0.5014;9.7841;-0.4369;0.1518;-0.341;0.2765;-0.0385;1.7148;0.073;0.0;-9.78;-47.4;-22.8;157.33;-86.11;131.07;0.0;997.0;53.646;55.701347;13.169365;239.35;NaN;;;51.658066;;0 / 2;10548;2020-12-03 17:23:14:331
0.6177;10.032;0.0263;0.6386;9.7469;-0.8713;0.5514;0.1318;1.003;0.08;1.1382;-0.0033;0.0;-2.16;-47.82;-23.28;214.0;-83.68;-143.76;0.0;996.99;55.481;55.701347;13.169365;239.35;NaN;;;51.658066;;0 / 2;11047;2020-12-03 17:23:14:830
1.1923;9.8644;-0.1844;0.4617;9.7717;-0.6862;0.7306;0.0927;0.5018;0.1557;1.3672;-0.3723;0.0;8.22;-48.78;-14.76;188.54;-84.82;-141.21;0.0;997.0;46.294;55.701347;13.169365;239.35;NaN;;;51.658066;;0 / 2;11548;2020-12-03 17:23:15:331
-0.2586;9.5867;0.0503;-0.7454;9.7774;0.1305;-0.8372;0.0727;0.231;-0.3861;1.0777;-0.1371;0.0;16.86;-45.72;-10.44;24.96;-85.57;80.07;0.0;997.0;55.137;55.701347;13.169365;239.35;NaN;;;51.658066;;0 / 2;12049;2020-12-03 17:23:15:832
-0.486;9.6394;0.6153;-0.8066;9.7589;0.5316;0.6414;2.1215;0.7805;-0.3366;0.4705;0.0437;0.0;16.38;-48.48;-2.7;328.32;-84.35;56.61;0.0;997.03;52.588;55.701347;13.169365;239.35;NaN;;;51.658066;;0 / 2;12548;2020-12-03 17:23:16:331
-0.1413;9.5316;-0.237;0.3575;9.7754;-0.6955;-0.3025;-0.093;0.5853;0.4031;0.0728;0.1885;0.0;8.1;-50.16;11.46;80.1;-85.43;-152.79;0.0;996.97;49.904;55.701347;13.169365;239.35;NaN;;;51.658066;;0 / 2;13049;2020-12-03 17:23:16:832
-1.8173;11.7822;-0.7183;-0.1179;9.798;-0.3948;-1.108;1.4623;-1.4105;-1.3452;0.5963;-0.2971;0.0;12.9;-50.04;12.18;34.55;-87.59;163.38;0.0;997.03;50.173;55.701347;13.169365;239.35;NaN;;;51.658066;;0 / 2;13548;2020-12-03 17:23:17:331
0.1317;9.0743;-1.5156;-0.5646;9.7868;-0.2653;0.7753;-0.2576;-0.5056;0.3879;0.6629;0.1476;0.0;9.9;-48.78;21.3;315.15;-86.35;115.17;0.0;997.02;55.808;55.701347;13.169365;239.35;NaN;;;51.658066;;0 / 2;14049;2020-12-03 17:23:17:832
-0.3783;10.0751;-1.9609;0.5051;9.6177;-1.8476;-0.8834;0.4574;-0.1133;0.3231;-0.1343;0.2801;0.0;13.08;-43.56;30.18;51.23;-78.74;-164.71;0.0;997.02;53.006;55.701347;13.169365;239.35;NaN;;;51.658066;;0 / 2;14548;2020-12-03 17:23:18:331
-1.02;10.1134;0.3903;-0.4374;9.7863;-0.4558;-0.2283;-0.2427;0.6306;-0.7966;1.3294;-0.4884;0.0;9.66;-48.18;25.44;335.17;-86.31;136.18;0.0;996.99;56.615;55.701347;13.169365;239.35;NaN;;;51.658066;;0 / 2;15048;2020-12-03 17:23:18:831
1.1612;8.8325;-0.3591;-0.2806;9.7881;-0.5327;2.3493;-0.3092;0.3029;0.521;0.5865;0.3149;0.0;-5.76;-42.9;20.4;309.89;-86.48;152.22;0.0;997.01;64.862;55.701347;13.169365;239.35;NaN;;;51.658066;;0 / 2;15548;2020-12-03 17:23:19:331
3.0766;8.1501;-3.4406;0.1459;9.7635;-0.9075;2.9308;-1.6133;-2.5331;-1.4643;-0.2174;-0.1615;0.0;-4.02;-40.56;18.84;352.46;-81.7;-173.28;0.0;997.03;52.423;55.701347;13.169365;239.35;NaN;;;51.658066;;0 / 2;16048;2020-12-03 17:23:19:831
-0.8859;7.6473;0.2442;-0.5086;9.7784;0.5419;2.697;-3.0194;-2.8835;0.8594;0.0459;-0.6405;0.0;-8.22;-45.0;4.26;165.27;-85.65;43.18;0.0;997.02;58.976;55.701347;13.169365;239.35;NaN;;;51.658066;;0 / 2;16548;2020-12-03 17:23:20:331
-1.8987;9.3784;-0.1101;0.3958;9.5669;-2.1184;-1.6217;-0.6027;1.6228;0.2284;-0.5576;0.0865;0.0;-12.06;-42.12;12.42;294.78;-77.31;-169.42;0.0;997.0;65.097;55.701347;13.169365;239.35;NaN;;;51.658066;;0 / 2;17048;2020-12-03 17:23:20:831
-0.6991;10.9921;1.2498;-0.3193;9.7995;0.1963;-0.3799;1.1926;1.0536;-0.0019;0.5786;0.3669;0.0;-11.82;-43.44;-1.32;147.81;-87.81;58.42;0.0;996.98;57.046;55.701347;13.169365;239.35;NaN;;;51.658066;;0 / 2;17548;2020-12-03 17:23:21:331
0.2538;10.1541;-0.4789;0.3403;9.6813;-1.5255;-0.2398;0.4585;0.733;0.8466;-0.2357;0.1915;0.0;-16.92;-43.14;-2.04;253.24;-80.83;-167.42;0.0;996.98;54.979;55.701347;13.169365;239.35;NaN;;;51.658066;;0 / 2;18048;2020-12-03 17:23:21:831
-0.0239;9.8453;0.3017;-0.3492;9.7996;-0.1256;-0.077;-1.6232;0.0442;-0.628;0.5823;-0.4975;0.0;-5.22;-42.3;-8.1;147.03;-87.83;109.78;0.0;997.04;53.956;55.701347;13.169365;239.35;NaN;;;51.658066;;0 / 2;18548;2020-12-03 17:23:22:331
0.9529;7.846;-0.565;0.1101;9.7449;-1.0934;0.996;-1.3362;0.6289;0.3543;-0.7317;0.1964;0.0;-6.9;-45.18;3.24;256.51;-85.65;169.2;0.0;996.99;63.428;55.701347;13.169365;239.35;NaN;;;51.658066;;0 / 2;19048;2020-12-03 17:23:22:831
-2.6217;9.1509;-0.0168;0.2003;9.7926;-0.4852;-2.2474;1.6593;-0.6281;-0.8284;0.3984;-0.1114;0.0;-4.68;-49.92;-3.78;234.02;-86.93;-157.57;0.0;997.05;52.015;55.701347;13.169365;239.35;NaN;;;51.658066;;0 / 2;19548;2020-12-03 17:23:23:331
0.3951;9.9841;-2.2674;-0.7281;9.7784;0.1491;-0.9048;-0.91;-1.6598;0.5766;-0.3273;0.04;0.0;6.54;-50.88;22.74;266.11;-85.65;78.43;0.0;997.02;62.132;55.701347;13.169365;239.35;NaN;;;51.658066;;0 / 2;20049;2020-12-03 17:23:23:832
2.4446;9.2874;-3.079;-0.1759;9.7246;-1.2538;2.6204;-0.4372;-1.8253;-1.044;-0.4012;-0.2446;0.0;-3.42;-44.76;24.96;347.78;-79.73;178.68;0.0;997.04;57.541;55.701347;13.169365;239.35;NaN;;;51.658066;;0 / 2;20548;2020-12-03 17:23:24:331
2.7438;20.5908;0.8476;-0.3966;9.7867;0.483;-1.1309;3.7673;0.1874;-0.5871;0.1522;0.2783;0.0;-10.74;-49.14;13.86;181.05;-86.35;39.39;0.0;997.01;58.24;55.701347;13.169365;239.35;NaN;;;51.658066;;0 / 2;21048;2020-12-03 17:23:24:831
-0.8428;9.1844;-0.9314;0.2835;9.616;-1.9033;-0.5803;-0.0485;0.9863;0.5003;-0.593;0.1579;0.0;-12.06;-44.34;22.68;331.17;-78.68;-171.53;0.0;997.0;60.944;55.701347;13.169365;239.35;NaN;;;51.658066;;0 / 2;21549;2020-12-03 17:23:25:332
-1.6616;9.2922;1.2067;-0.4905;9.793;0.1654;-1.1711;-0.5008;1.0413;0.3591;0.6592;0.3534;0.0;-7.08;-50.94;10.32;210.06;-86.97;71.37;0.0;996.99;57.608;55.701347;13.169365;239.35;NaN;;;51.658066;;0 / 2;22049;2020-12-03 17:23:25:832
0.4573;10.1733;-0.905;0.1094;9.7281;-1.2337;0.3479;0.4452;0.3287;0.518;-0.3756;0.3436;0.0;-12.48;-45.24;17.58;321.77;-82.74;-174.93;0.0;997.01;56.927;55.701347;13.169365;239.35;NaN;;;51.658066;;0 / 2;22548;2020-12-03 17:23:26:331
-0.0503;7.7646;-0.8093;0.2798;9.797;-0.3319;-2.4203;0.9629;-0.3193;-0.5113;-0.1147;-0.3362;0.0;-7.08;-47.58;12.18;11.65;-87.46;-139.87;0.0;997.06;54.593;55.701347;13.169365;239.35;NaN;;;51.658066;;0 / 2;23048;2020-12-03 17:23:26:831
1.846;10.2619;-0.6848;-0.3047;9.7978;-0.2846;1.782;0.2749;-1.1591;0.656;-0.1306;0.0138;0.0;-11.4;-45.72;15.96;223.39;-88.0;81.14;0.0;997.0;62.334;55.701347;13.169365;239.35;NaN;;;51.658066;;0 / 2;23548;2020-12-03 17:23:27:331
2.933;9.7088;-2.6026;-0.0119;9.6966;-1.4648;2.2314;1.1423;-1.4945;-0.9713;-0.9217;0.059;0.0;-4.5;-44.46;18.96;341.17;-81.41;179.53;0.0;997.04;54.413;55.701347;13.169365;239.35;NaN;;;51.658066;;0 / 2;24048;2020-12-03 17:23:27:831
-1.9825;10.3265;-0.0886;-0.3525;9.79;-0.45;-0.3323;-0.4355;1.3957;-0.179;-0.7177;0.1243;0.0;-2.64;-45.54;15.78;303.34;-86.66;141.93;0.0;997.01;57.178;55.701347;13.169365;239.35;NaN;;;51.658066;;0 / 2;24548;2020-12-03 17:23:28:331
-0.0287;9.8237;-0.68;0.0536;9.7209;-1.2931;-0.2093;-0.1509;0.6132;0.1918;-1.8404;0.2636;0.0;9.78;-47.22;14.4;55.55;-82.42;-177.62;0.0;997.01;60.025;55.701347;13.169365;239.35;NaN;;;51.658066;;0 / 2;25048;2020-12-03 17:23:28:831
-2.0088;9.8596;0.2466;-0.4407;9.7785;-0.5966;-1.015;0.0332;0.8839;0.3109;-2.1349;0.0798;0.0;17.16;-47.7;-2.52;75.37;-85.66;143.55;0.0;997.03;54.704;55.701347;13.169365;239.35;NaN;;;51.658066;;0 / 2;25548;2020-12-03 17:23:29:331
0.577;9.7375;-1.6018;-1.1642;9.715;-0.6578;1.1546;-0.126;-1.0014;0.0922;-0.7812;0.0333;0.0;12.18;-47.94;-14.22;99.47;-82.16;119.47;0.0;996.99;48.604;55.701347;13.169365;239.35;NaN;;;51.658066;;0 / 2;26050;2020-12-03 17:23:29:833
-0.5267;9.7327;-1.0798;0.1799;9.6902;-1.4963;-0.7066;0.0426;0.4165;0.4233;-0.8453;0.2141;0.0;-1.68;-49.74;-14.22;189.79;-81.16;-173.14;0.0;997.02;46.828;55.701347;13.169365;239.35;NaN;;;51.658066;;0 / 2;26548;2020-12-03 17:23:30:331
-1.0487;9.4981;-0.0982;-0.3669;9.7973;-0.2217;-0.7895;-0.3782;0.2217;-0.5834;0.2011;-0.4896;0.0;-4.92;-47.28;-22.92;136.81;-87.49;121.14;0.0;997.03;56.473;55.701347;13.169365;239.35;NaN;;;51.658066;;0 / 2;27048;2020-12-03 17:23:30:831
0.8883;9.0623;-0.7829;-0.644;9.7814;-0.2826;3.0143;-0.4461;-0.5435;0.5815;0.14;0.0174;0.0;-2.64;-47.94;-22.32;128.38;-85.89;113.69;0.0;996.99;62.003;55.701347;13.169365;239.35;NaN;;;51.658066;;0 / 2;27548;2020-12-03 17:23:31:331
-2.3272;10.8676;-2.4446;0.2413;9.7651;-0.8684;-1.2182;1.0714;-0.8268;-0.3916;-0.805;0.3137;0.0;-8.16;-50.58;-15.84;211.33;-83.97;-166.39;0.0;997.01;47.929;55.701347;13.169365;239.35;NaN;;;51.658066;;0 / 2;28048;2020-12-03 17:23:31:831
-0.8524;9.5436;-0.7877;-0.4744;9.7299;-1.1283;-0.3755;-0.1097;0.3837;0.1606;-0.9687;0.0798;0.0;-16.44;-50.4;-10.92;205.03;-82.83;157.19;0.0;997.04;52.099;55.701347;13.169365;239.35;NaN;;;51.658066;;0 / 2;28548;2020-12-03 17:23:32:331
-0.2849;9.7088;-0.7398;-0.5931;9.7215;-1.1449;-0.1587;-0.1348;-0.3994;-0.0245;-0.7708;0.1958;0.0;-19.56;-48.84;-1.62;224.19;-82.44;152.61;0.0;997.03;44.695;55.701347;13.169365;239.35;NaN;;;51.658066;;0 / 2;29048;2020-12-03 17:23:32:831
-0.079;9.601;-0.4382;0.0822;9.6887;-1.514;-0.4437;-0.2983;1.0591;0.2968;-0.4947;-0.0571;0.0;-20.58;-47.04;6.84;275.05;-81.73;-175.43;0.0;997.0;50.458;55.701347;13.169365;239.35;NaN;;;51.658066;;0 / 2;29549;2020-12-03 17:23:33:332
-1.154;9.0719;0.5267;-1.1065;9.7411;0.2378;0.3451;0.0706;0.5164;-0.49;0.4271;-0.3375;0.0;-16.92;-49.26;-5.46;158.17;-83.37;77.87;0.0;997.01;57.559;55.701347;13.169365;239.35;NaN;;;51.658066;;0 / 2;30048;2020-12-03 17:23:33:831
1.0056;9.115;-0.3544;-0.4584;9.7741;-0.6532;1.5741;-0.8267;0.6006;0.2296;0.2029;0.2123;0.0;-21.66;-46.08;-4.56;216.55;-85.33;144.94;0.0;997.02;61.04;55.701347;13.169365;239.35;NaN;;;51.658066;;0 / 2;30548;2020-12-03 17:23:34:331
1.6999;7.1852;-2.7845;0.0746;9.7084;-1.3825;1.3978;-1.2231;-1.1099;-0.8406;-0.1062;-0.1609;0.0;-24.84;-45.66;4.62;269.5;-81.88;-176.91;0.0;997.02;48.699;55.701347;13.169365;239.35;NaN;;;51.658066;;0 / 2;31048;2020-12-03 17:23:34:831
-1.7167;9.5819;0.9577;-0.4628;9.7919;0.2713;-1.1557;-0.2292;0.2052;-0.4686;0.9054;0.0871;0.0;-28.08;-51.0;-11.7;130.39;-86.86;59.63;0.0;997.0;49.535;55.701347;13.169365;239.35;NaN;;;51.658066;;0 / 2;31548;2020-12-03 17:23:35:331
0.996;10.3672;-0.1556;0.5259;9.6909;-1.4074;0.8963;-0.1904;1.6061;0.2571;1.0923;-0.0394;0.0;-27.18;-60.78;-22.02;238.31;-81.19;-159.51;0.0;996.99;59.804;55.701347;13.169365;239.35;NaN;;;51.658066;;0 / 2;32047;2020-12-03 17:23:35:830
0.1389;10.2667;0.1269;-0.6106;9.7768;0.4588;0.7494;0.4898;-0.3319;-0.8302;1.9347;-0.2135;0.0;3.3;-56.04;-33.42;80.78;-87.38;81.59;0.0;997.0;50.94;55.701347;13.169365;239.35;NaN;;;51.658066;;0 / 2;32548;2020-12-03 17:23:36:331
0.7638;8.9163;0.0479;-0.481;9.7948;-0.0214;2.0804;-0.517;0.4451;0.339;1.6262;0.1017;0.0;20.58;-51.48;-16.08;43.64;-87.19;92.54;0.0;996.98;54.598;55.701347;13.169365;239.35;NaN;;;51.658066;;0 / 2;33048;2020-12-03 17:23:36:831
0.8859;10.6497;-2.1453;0.6026;9.7299;-1.066;0.1037;1.2575;-1.7832;0.0458;1.1748;0.0602;0.0;20.7;-48.0;3.84;122.28;-82.83;-150.52;0.0;997.0;59.572;55.701347;13.169365;239.35;NaN;;;51.658066;;0 / 2;33549;2020-12-03 17:23:37:332
-0.6105;9.8333;1.8795;-0.9149;9.7442;0.62;0.3043;0.0891;1.2595;0.0378;1.2842;0.3229;0.0;15.72;-44.28;9.6;278.66;-83.53;55.87;0.0;996.98;56.508;55.701347;13.169365;239.35;NaN;;;51.658066;;0 / 2;34048;2020-12-03 17:23:37:831
0.4453;10.1517;-0.2682;0.2903;9.774;-0.7445;0.2149;0.1024;0.5099;0.2376;-0.2729;0.0303;0.0;9.72;-47.4;14.04;68.93;-85.33;-158.7;0.0;997.01;64.599;55.701347;13.169365;239.35;NaN;;;51.658066;;0 / 2;34548;2020-12-03 17:23:38:331
0.1604;7.7551;-0.4765;0.3032;9.8019;0.0214;-0.885;-1.5919;-1.1036;-0.1399;-0.3817;-0.3766;0.0;14.28;-49.32;4.26;169.2;-88.22;-85.97;0.0;997.04;55.963;55.701347;13.169365;239.35;NaN;;;51.658066;;0 / 2;35048;2020-12-03 17:23:38:831
1.4725;8.3345;-2.1237;-0.2648;9.8029;0.0569;1.7372;-1.4684;-2.1806;0.51;-0.8136;-0.1896;0.0;12.0;-47.94;1.92;335.85;-88.42;77.88;0.0;997.0;54.23;55.701347;13.169365;239.35;NaN;;;51.658066;;0 / 2;35548;2020-12-03 17:23:39:331
-1.2474;11.5189;-3.2754;0.1413;9.6196;-1.9008;-1.3888;1.8993;-1.3746;-0.2639;-0.7879;0.3791;0.0;10.44;-49.74;0.18;136.33;-78.79;-175.75;0.0;997.04;50.13;55.701347;13.169365;239.35;NaN;;;51.658066;;0 / 2;36048;2020-12-03 17:23:39:831
-0.5076;10.1445;-0.2825;-0.5468;9.7913;0.0364;-1.5698;-0.0346;0.5694;0.2248;0.0972;0.3302;0.0;7.86;-49.26;-19.44;70.59;-86.8;86.19;0.0;996.98;58.185;55.701347;13.169365;239.35;NaN;;;51.658066;;0 / 2;36548;2020-12-03 17:23:40:331
0.2777;9.8931;-0.6512;-0.0915;9.7174;-1.3171;0.714;0.5158;0.515;0.5418;-0.7042;0.0932;0.0;4.74;-51.54;-15.48;160.64;-84.0;172.63;0.0;996.98;62.6;55.701347;13.169365;239.35;NaN;;;51.658066;;0 / 2;37049;2020-12-03 17:23:40:832
-0.407;10.0057;0.1628;-0.4755;9.7929;-0.2065;0.1475;-0.3667;0.5034;-0.5058;0.4772;-0.3943;0.0;3.6;-51.18;-23.76;109.97;-86.97;113.47;0.0;997.02;52.86;55.701347;13.169365;239.35;NaN;;;51.658066;;0 / 2;37548;2020-12-03 17:23:41:331
1.427;9.4167;-0.0718;-0.5525;9.7827;-0.4057;2.0297;0.2015;-2.0796;0.653;0.2206;0.1091;0.0;3.84;-49.92;-20.82;123.31;-85.99;126.29;0.0;996.98;61.222;55.701347;13.169365;239.35;NaN;;;51.658066;;0 / 2;38048;2020-12-03 17:23:41:831
0.9386;8.9618;-2.3033;0.1408;9.7593;-0.9523;0.7978;-0.7975;-1.351;-1.135;-0.2778;-0.0137;0.0;-1.98;-51.6;-18.3;191.56;-84.37;-171.59;0.0;997.02;53.411;55.701347;13.169365;239.35;NaN;;;51.658066;;0 / 2;38549;2020-12-03 17:23:42:332
-0.079;8.1142;0.1125;-0.5619;9.7836;0.3684;2.8413;-1.43;-2.4275;0.8717;-0.1031;-0.3796;0.0;1.2;-48.96;-29.64;60.49;-86.07;56.75;0.0;996.99;57.644;55.701347;13.169365;239.35;NaN;;;51.658066;;0 / 2;39048;2020-12-03 17:23:42:831
-1.4054;9.376;0.2897;0.2596;9.636;-1.8029;-1.3921;-0.3869;1.6976;0.2944;-0.9137;0.0828;0.0;-5.82;-50.1;-17.52;198.14;-79.3;-171.81;0.0;997.0;51.436;55.701347;13.169365;239.35;NaN;;;51.658066;;0 / 2;39548;2020-12-03 17:23:43:331
-1.3169;9.9195;0.5555;-0.4755;9.795;0.0375;-0.8413;0.1245;0.518;0.3213;0.2005;0.321;0.0;-9.6;-45.66;-22.5;97.13;-86.9;66.83;0.0;996.98;58.194;55.701347;13.169365;239.35;NaN;;;51.658066;;0 / 2;40049;2020-12-03 17:23:43:832
-0.0359;9.8165;-0.4166;0.0106;9.7415;-1.1286;-0.0465;0.0751;0.712;0.5314;-0.6358;0.2074;0.0;-12.0;-47.7;-12.0;214.95;-83.39;-179.46;0.0;996.99;63.449;55.701347;13.169365;239.35;NaN;;;51.658066;;0 / 2;40548;2020-12-03 17:23:44:331
0.1245;8.186;0.17;-0.3077;9.8008;-0.1416;-0.2741;-1.2221;-0.5863;-0.0764;-0.3346;-0.4651;0.0;-12.0;-46.5;-11.94;161.41;-88.02;114.71;0.0;996.99;47.452;55.701347;13.169365;239.35;NaN;;;51.658066;;0 / 2;41049;2020-12-03 17:23:44:832
-1.1493;7.4558;-0.3855;-0.7944;9.7742;-0.0639;0.5693;-1.8635;-1.3367;0.3011;-0.1447;0.0138;0.0;-12.18;-45.48;-10.02;139.71;-85.0;80.27;0.0;996.97;50.844;55.701347;13.169365;239.35;NaN;;;51.658066;;0 / 2;41548;2020-12-03 17:23:45:331
-1.9178;10.4366;-0.8452;-0.1188;9.6508;-1.7372;-0.9563;0.0053;1.5576;0.2211;-0.2846;-0.0766;0.0;-14.7;-43.92;3.9;252.2;-79.77;176.09;0.0;996.99;50.976;55.701347;13.169365;239.35;NaN;;;51.658066;;0 / 2;42049;2020-12-03 17:23:45:832
-1.8556;9.5771;1.688;-0.8266;9.7593;0.4924;-1.0673;-0.1798;1.2027;-0.0159;2.0068;0.1757;0.0;-11.16;-47.4;-8.76;125.22;-84.37;59.22;0.0;996.97;54.262;55.701347;13.169365;239.35;NaN;;;51.658066;;0 / 2;42548;2020-12-03 17:23:46:331
1.7023;9.7016;0.9194;0.1544;9.8038;-0.1807;1.2918;-0.0399;1.0283;0.3561;2.5761;0.1964;0.0;-10.2;-50.82;-15.18;250.49;-88.61;-139.49;0.0;996.98;62.047;55.701347;13.169365;239.35;NaN;;;51.658066;;0 / 2;43048;2020-12-03 17:23:46:831
0.1197;10.0703;-2.1189;0.5971;9.7872;-0.1522;-0.4774;0.2831;-1.9668;-0.559;1.5529;-0.6686;0.0;1.32;-52.08;-10.26;234.65;-86.4;-104.3;0.0;997.01;47.27;55.701347;13.169365;239.35;NaN;;;51.658066;;0 / 2;43549;2020-12-03 17:23:47:332
-0.6728;9.285;1.336;-0.9818;9.7173;0.883;0.3353;-0.3677;0.4697;0.2211;1.096;0.2013;0.0;11.34;-47.22;-7.62;348.75;-82.26;48.03;0.0;997.01;53.497;55.701347;13.169365;239.35;NaN;;;51.658066;;0 / 2;44048;2020-12-03 17:23:47:831
0.4238;9.1054;-0.4022;0.0098;9.7856;-0.6416;0.1123;-0.6132;0.6392;0.4813;0.2567;0.1641;0.0;5.16;-46.32;3.0;56.18;-87.22;158.58;0.0;997.0;63.687;55.701347;13.169365;239.35;NaN;;;51.658066;;0 / 2;44548;2020-12-03 17:23:48:331
-0.4812;8.7391;-1.2163;-0.1579;9.8051;-0.0688;-1.4127;-0.2903;-0.5801;-0.5382;0.7411;-0.3955;0.0;2.1;-42.78;4.56;309.08;-88.99;113.53;0.0;997.02;55.617;55.701347;13.169365;239.35;NaN;;;51.658066;;0 / 2;45048;2020-12-03 17:23:48:831
-0.2251;7.9203;-1.4174;-0.7833;9.7692;0.3457;-0.4832;-1.8154;-1.258;0.8613;0.4442;-0.0778;0.0;3.72;-45.3;3.36;251.13;-84.99;66.18;0.0;996.98;56.174;55.701347;13.169365;239.35;NaN;;;51.658066;;0 / 2;45548;2020-12-03 17:23:49:331
2.6002;10.5204;-3.2059;0.1779;9.6883;-1.5084;0.526;2.5177;-2.0255;-0.8296;0.3929;-0.0742;0.0;3.12;-42.54;17.04;28.64;-79.19;-174.8;0.0;997.0;53.798;55.701347;13.169365;239.35;NaN;;;51.658066;;0 / 2;46048;2020-12-03 17:23:49:831
-1.6568;9.6561;2.411;-0.2039;9.7966;0.3935;-1.4529;-0.1405;2.0176;-0.4777;0.363;0.0956;0.0;-2.94;-44.58;14.34;193.43;-87.41;27.4;0.0;996.98;57.279;55.701347;13.169365;239.35;NaN;;;51.658066;;0 / 2;46549;2020-12-03 17:23:50:332
-1.3647;9.2515;-0.5148;0.3966;9.6416;-1.7473;-0.4685;-0.1315;1.3235;0.4746;-0.7598;0.1732;0.0;-5.28;-42.3;26.94;3.27;-79.47;-167.21;0.0;996.97;63.44;55.701347;13.169365;239.35;NaN;;;51.658066;;0 / 2;47049;2020-12-03 17:23:50:832
-1.6951;8.7702;1.2235;-0.4074;9.7932;0.3122;-1.2567;-1.0373;0.8778;0.339;0.6049;0.2881;0.0;-1.38;-51.84;13.62;224.03;-87.11;55.54;0.0;996.96;58.863;55.701347;13.169365;239.35;NaN;;;51.658066;;0 / 2;47548;2020-12-03 17:23:51:331
-0.079;10.6665;-1.0295;-0.0435;9.7519;-1.0341;0.2135;0.8404;0.1865;0.5284;-0.3273;0.1292;0.0;-7.74;-47.28;22.02;331.7;-83.94;177.59;0.0;997.01;61.227;55.701347;13.169365;239.35;NaN;;;51.658066;;0 / 2;48048;2020-12-03 17:23:51:831
-1.6209;8.5883;-1.1876;0.2252;9.7908;-0.5089;-1.9035;1.977;-0.796;-0.8455;0.1284;-0.2855;0.0;-6.96;-48.84;14.94;358.61;-86.75;-156.13;0.0;997.04;54.789;55.701347;13.169365;239.35;NaN;;;51.658066;;0 / 2;48548;2020-12-03 17:23:52:331
1.3312;9.625;-1.8292;-0.4554;9.794;-0.1995;2.9191;0.463;-0.3847;0.532;0.1076;-0.084;0.0;-8.04;-45.54;14.1;255.86;-87.09;113.66;0.0;996.99;58.929;55.701347;13.169365;239.35;NaN;;;51.658066;;0 / 2;49048;2020-12-03 17:23:52:831
1.4533;6.8237;-2.3775;0.3381;9.7545;-0.952;1.1152;-2.9308;-1.4255;-1.0794;-1.0481;0.0883;0.0;-4.62;-42.48;20.7;7.75;-84.09;-160.45;0.0;997.01;52.694;55.701347;13.169365;239.35;NaN;;;51.658066;;0 / 2;49548;2020-12-03 17:23:53:331
-2.5595;10.3504;1.6353;-0.6391;9.7747;0.4657;-1.1231;0.3483;0.3292;-0.1173;-0.0781;0.0211;0.0;-2.82;-46.26;14.94;214.75;-85.38;53.92;0.0;997.0;54.92;55.701347;13.169365;239.35;NaN;;;51.658066;;0 / 2;50048;2020-12-03 17:23:53:831
0.3974;9.546;-0.3567;0.1191;9.6787;-1.5741;0.6112;-0.4057;1.0187;0.4233;0.1492;0.0382;0.0;-9.78;-39.06;25.8;338.23;-80.74;-175.67;0.0;996.99;61.806;55.701347;13.169365;239.35;NaN;;;51.658066;;0 / 2;50548;2020-12-03 17:23:54:331
-0.4358;9.8955;0.3544;-0.752;9.7767;-0.1439;0.187;-0.3504;0.5031;-0.9738;2.1198;-0.1304;0.0;-18.3;-50.34;10.98;216.08;-85.52;100.83;0.0;997.01;50.719;55.701347;13.169365;239.35;NaN;;;51.658066;;0 / 2;51048;2020-12-03 17:23:54:831
0.5507;9.2419;-0.0263;-0.6928;9.7612;0.6389;-0.0854;-1.0676;-0.1936;0.5943;2.2102;0.1622;0.0;-10.98;-49.02;-23.34;83.53;-84.49;47.32;0.0;997.03;53.286;55.701347;13.169365;239.35;NaN;;;51.658066;;0 / 2;51548;2020-12-03 17:23:55:331
1.8723;10.056;-0.079;0.6558;9.7803;-0.2944;1.0106;0.0913;0.3135;0.4196;1.644;-0.1353;0.0;-6.24;-44.82;-13.14;257.6;-85.8;-114.17;0.0;996.99;54.7;55.701347;13.169365;239.35;NaN;;;51.658066;;0 / 2;52049;2020-12-03 17:23:55:832
0.3328;10.0368;0.6034;-0.9839;9.7237;0.8078;1.3981;0.4041;-0.1566;-0.6134;1.6751;-0.2538;0.0;5.34;-42.72;-19.38;48.44;-82.54;50.61;0.0;997.01;51.425;55.701347;13.169365;239.35;NaN;;;51.658066;;0 / 2;52548;2020-12-03 17:23:56:331
-0.2322;9.0599;-1.5563;-0.3706;9.7786;0.6419;-0.3166;-1.4704;-0.7832;0.124;-0.1257;0.1726;0.0;9.24;-46.68;-18.48;4.18;-85.67;30.0;0.0;997.04;56.527;55.701347;13.169365;239.35;NaN;;;51.658066;;0 / 2;53048;2020-12-03 17:23:56:831
-0.3208;9.522;-0.8524;0.4178;9.6994;-1.3848;-1.6988;-0.163;0.4917;0.3292;-0.8588;0.0816;0.0;3.06;-49.86;-14.58;183.73;-81.52;-163.21;0.0;997.02;57.48;55.701347;13.169365;239.35;NaN;;;51.658066;;0 / 2;53548;2020-12-03 17:23:57:331
-1.5659;8.7942;1.0463;-0.5178;9.7836;0.429;-0.653;-0.805;0.8902;0.32;0.7105;0.2477;0.0;3.36;-47.1;-26.94;38.97;-85.57;40.4;0.0;996.99;58.169;55.701347;13.169365;239.35;NaN;;;51.658066;;0 / 2;54048;2020-12-03 17:23:57:831
-0.3113;9.8668;-0.4884;-0.0352;9.7782;-0.7458;-0.2545;0.443;0.2311;0.3817;-0.1312;0.1329;0.0;1.5;-50.22;-19.32;172.72;-85.63;177.3;0.0;997.0;57.948;55.701347;13.169365;239.35;NaN;;;51.658066;;0 / 2;54548;2020-12-03 17:23:58:331
-1.8436;10.3912;-0.2753;0.0525;9.7976;-0.4178;-1.3095;1.908;-0.5998;-1.1589;0.352;-0.0265;0.0;1.26;-51.0;-21.36;184.03;-87.54;-172.83;0.0;997.05;53.262;55.701347;13.169365;239.35;NaN;;;51.658066;;0 / 2;55048;2020-12-03 17:23:58:831
0.8212;9.3616;-1.9011;-0.4503;9.7959;0.0872;0.8023;-0.2044;-1.5956;0.5528;-0.0848;-0.018;0.0;4.32;-51.42;-25.56;55.96;-86.34;58.75;0.0;997.0;62.316;55.701347;13.169365;239.35;NaN;;;51.658066;;0 / 2;55549;2020-12-03 17:23:59:332
-0.3735;11.708;-2.8348;0.1897;9.6656;-1.6466;-1.1139;1.6689;0.3992;-0.3721;0.0429;0.0455;0.0;-0.96;-54.9;-15.36;186.48;-80.27;-173.43;0.0;997.01;55.392;55.701347;13.169365;239.35;NaN;;;51.658066;;0 / 2;56048;2020-12-03 17:23:59:831
-1.4964;9.6896;1.6784;-0.3818;9.7948;0.2942;-0.7124;-0.1147;1.0442;0.0018;0.4882;0.208;0.0;3.24;-50.28;-28.02;50.14;-87.18;52.38;0.0;996.98;58.285;55.701347;13.169365;239.35;NaN;;;51.658066;;0 / 2;56548;2020-12-03 17:24:00:331
0.8691;9.4789;-0.5459;0.2375;9.6885;-1.499;0.6317;-0.2095;0.9531;0.4886;-0.5802;0.2093;0.0;-1.44;-49.68;-18.18;188.38;-82.91;-172.0;0.0;996.97;62.205;55.701347;13.169365;239.35;NaN;;;51.658066;;0 / 2;57048;2020-12-03 17:24:00:831
-0.3687;9.0815;-0.0024;-0.082;9.8026;-0.2697;-0.1287;-1.9661;-0.3384;-0.512;-0.1984;-0.3796;0.0;-8.22;-45.36;-22.32;182.91;-88.35;163.08;0.0;997.01;54.655;55.701347;13.169365;239.35;NaN;;;51.658066;;0 / 2;57548;2020-12-03 17:24:01:331
1.5275;9.3377;-0.17;-0.2877;9.7996;-0.2347;2.0211;1.135;-1.5443;0.4563;-0.6272;0.0675;0.0;-9.12;-46.5;-20.64;154.29;-87.83;129.21;0.0;996.98;59.317;55.701347;13.169365;239.35;NaN;;;51.658066;;0 / 2;58048;2020-12-03 17:24:01:831
2.8396;8.0735;-3.364;-0.0303;9.7518;-1.0348;2.87;-1.6783;-2.3292;-1.0929;-0.7567;-0.0681;0.0;-14.52;-46.98;-6.48;232.52;-83.94;178.32;0.0;997.02;51.276;55.701347;13.169365;239.35;NaN;;;51.658066;;0 / 2;58548;2020-12-03 17:24:02:331
-1.3959;10.1709;1.4988;-0.671;9.7801;0.2642;-0.7249;0.3908;1.2346;-0.154;0.2952;0.0614;0.0;-11.46;-46.68;-14.1;116.62;-85.78;68.51;0.0;997.0;53.458;55.701347;13.169365;239.35;NaN;;;51.658066;;0 / 2;59049;2020-12-03 17:24:02:832
0.7159;9.6801;-0.6872;-0.1506;9.7368;-1.1585;0.0644;-0.2291;0.73;0.6224;-0.0158;0.001;0.0;-15.24;-44.88;-2.82;234.76;-83.16;172.59;0.0;996.98;62.162;55.701347;13.169365;239.35;NaN;;;51.658066;;0 / 2;59548;2020-12-03 17:24:03:331
0.3089;8.8445;-0.5674;-0.6065;9.7844;-0.2606;0.3168;-0.5928;0.2127;-0.741;1.7557;-0.2892;0.0;-9.48;-48.96;-7.98;186.37;-86.68;139.49;0.0;997.02;54.66;55.701347;13.169365;239.35;NaN;;;51.658066;;0 / 2;60049;2020-12-03 17:24:03:832
0.9194;8.6697;0.3472;-0.3766;9.7981;-0.1608;1.0661;-0.9728;0.3547;0.5137;1.9769;0.1799;0.0;-8.52;-50.82;-14.16;149.56;-87.61;113.12;0.0;997.02;54.05;55.701347;13.169365;239.35;NaN;;;51.658066;;0 / 2;60548;2020-12-03 17:24:04:331
2.2985;9.7615;0.6129;0.9329;9.7577;-0.2958;1.0591;0.102;1.0619;0.4838;1.3966;-0.3039;0.0;-1.8;-51.72;-10.62;239.24;-84.27;-107.59;0.0;996.99;48.106;55.701347;13.169365;239.35;NaN;;;51.658066;;0 / 2;61048;2020-12-03 17:24:04:831
-0.5842;9.3137;1.0726;-0.69;9.7457;0.8457;0.1058;-0.432;0.2269;-0.2371;0.8853;-0.1224;0.0;9.78;-46.74;-9.78;350.74;-83.61;39.21;0.0;997.01;51.285;55.701347;13.169365;239.35;NaN;;;51.658066;;0 / 2;61549;2020-12-03 17:24:05:332
1.2331;8.7247;-0.0503;0.0726;9.802;-0.2922;1.1605;-1.0773;0.2419;0.5296;-0.4568;0.2539;0.0;6.66;-46.08;-3.84;140.13;-88.24;-166.05;0.0;997.04;61.502;55.701347;13.169365;239.35;NaN;;;51.658066;;0 / 2;62049;2020-12-03 17:24:05:832
0.7446;9.5388;-2.2865;0.2274;9.6809;-1.5489;-2.126;1.0982;-2.495;-0.5468;-0.5607;0.4505;0.0;4.56;-45.84;-0.78;152.02;-80.81;-171.65;0.0;997.02;52.068;55.701347;13.169365;239.35;NaN;;;51.658066;;0 / 2;62549;2020-12-03 17:24:06:332
-1.7071;8.9833;0.5507;-0.5584;9.7892;-0.1753;-1.1488;-0.8058;0.726;-0.5352;-0.4641;-0.1438;0.0;3.66;-46.14;-8.82;110.73;-86.69;120.08;0.0;996.99;59.906;55.701347;13.169365;239.35;NaN;;;51.658066;;0 / 2;63049;2020-12-03 17:24:06:832
-0.6608;9.3592;-0.4238;-0.0815;9.6931;-1.4859;-0.3926;-0.25;0.9903;0.4948;-1.0341;0.3272;0.0;0.36;-46.74;-3.96;178.87;-81.27;176.86;0.0;996.98;52.437;55.701347;13.169365;239.35;NaN;;;51.658066;;0 / 2;63548;2020-12-03 17:24:07:331
-2.1501;9.7806;0.735;-0.7946;9.7697;0.3037;-1.0394;0.2384;0.259;-0.3702;-0.083;-0.043;0.0;3.54;-44.22;-12.36;66.9;-85.02;69.09;0.0;996.99;54.992;55.701347;13.169365;239.35;NaN;;;51.658066;;0 / 2;64048;2020-12-03 17:24:07:831
0.1772;10.3912;-0.6465;-0.1158;9.7701;-0.8373;0.293;0.621;0.1909;0.2767;-0.8007;0.2044;0.0;2.52;-44.34;-7.74;160.17;-85.06;172.12;0.0;997.02;62.343;55.701347;13.169365;239.35;NaN;;;51.658066;;0 / 2;64548;2020-12-03 17:24:08:331
-2.5619;9.6633;-0.0503;-0.0069;9.8055;-0.1465;-2.555;-0.1422;0.0962;-0.46;-0.2784;-0.3118;0.0;-0.66;-41.94;-10.08;182.83;-89.14;177.3;0.0;997.05;51.734;55.701347;13.169365;239.35;NaN;;;51.658066;;0 / 2;65049;2020-12-03 17:24:08:832
1.6257;9.2682;-1.4318;-0.6725;9.7835;0.0281;1.1945;-1.4418;-1.6682;0.5943;-0.2595;0.0352;0.0;0.48;-45.36;-14.76;99.33;-86.06;87.61;0.0;997.02;61.294;55.701347;13.169365;239.35;NaN;;;51.658066;;0 / 2;65548;2020-12-03 17:24:09:331
1.8149;10.8197;-3.0431;-0.045;9.7495;-1.0559;3.1384;-0.5747;-2.1165;-1.1057;-0.2797;-0.0406;0.0;-10.02;-46.14;-8.34;212.27;-80.79;178.53;0.0;997.04;51.393;55.701347;13.169365;239.35;NaN;;;51.658066;;0 / 2;66048;2020-12-03 17:24:09:831
1.403;11.3177;0.7949;-0.3242;9.7931;0.4001;0.2141;4.2972;-0.8406;-0.6799;-0.7225;-0.0943;0.0;-11.28;-47.88;-29.94;63.23;-86.99;39.02;0.0;997.03;58.326;55.701347;13.169365;239.35;NaN;;;51.658066;;0 / 2;66548;2020-12-03 17:24:10:331
-0.182;10.2236;-0.996;0.4529;9.7002;-1.3676;-0.5678;-0.1016;0.6685;0.058;-0.5827;-0.0589;0.0;-21.06;-57.3;-21.42;230.9;-81.55;-161.68;0.0;997.0;50.302;55.701347;13.169365;239.35;NaN;;;51.658066;;0 / 2;67049;2020-12-03 17:24:10:832
1.2331;10.621;-0.7853;-0.119;9.79;-0.5573;0.2363;0.0432;0.634;-0.1772;-1.4275;0.0016;0.0;-27.54;-58.92;-26.28;216.22;-86.79;171.99;0.0;997.04;57.241;55.701347;13.169365;239.35;NaN;;;51.658066;;0 / 2;67549;2020-12-03 17:24:11:332
0.4765;9.1102;0.6465;0.1982;9.7611;-0.9232;0.2782;-0.6509;1.5697;0.2877;-1.2204;0.216;0.0;-36.84;-56.88;-14.04;253.78;-84.47;-167.88;0.0;997.01;58.024;55.701347;13.169365;239.35;NaN;;;51.658066;;0 / 2;68048;2020-12-03 17:24:11:831
-1.8508;9.7854;0.407;-0.0361;9.8038;-0.232;-1.5082;0.142;-0.108;-0.3153;-0.5943;-0.1909;0.0;-35.46;-52.62;-21.9;227.71;-88.63;171.15;0.0;997.03;51.463;55.701347;13.169365;239.35;NaN;;;51.658066;;0 / 2;68548;2020-12-03 17:24:12:331
0.5483;9.6609;-0.51;-0.5085;9.7811;-0.4924;1.0568;-0.1202;-0.0176;0.441;0.1437;0.1738;0.0;-26.52;-52.98;-27.24;153.07;-85.47;105.3;0.0;997.02;59.355;55.701347;13.169365;239.35;NaN;;;51.658066;;0 / 2;69048;2020-12-03 17:24:12:831
1.1947;8.356;-1.7766;-0.1967;9.7489;-1.0445;2.2367;0.1491;-0.3226;-0.6378;0.0435;-0.1945;0.0;-18.72;-49.5;-16.26;212.74;-83.78;169.33;0.0;997.01;50.523;55.701347;13.169365;239.35;NaN;;;51.658066;;0 / 2;69548;2020-12-03 17:24:13:331
-0.5411;11.1166;-0.1891;-0.5618;9.7878;-0.2299;-0.5994;0.7374;-0.577;-0.1277;1.0978;0.0211;0.0;-15.54;-45.72;-18.72;155.08;-86.45;112.25;0.0;997.03;54.501;55.701347;13.169365;239.35;NaN;;;51.658066;;0 / 2;70049;2020-12-03 17:24:13:832
1.7143;9.8261;-0.2418;0.7102;9.7544;-0.7191;1.0041;0.0717;0.4773;0.0946;1.6598;-0.1457;0.0;-1.98;-48.18;-22.26;217.02;-84.03;-140.49;0.0;997.0;45.18;55.701347;13.169365;239.35;NaN;;;51.658066;;0 / 2;70549;2020-12-03 17:24:14:332
-0.8691;11.2004;-0.34;-0.0027;9.8065;-0.0497;-0.8664;1.3939;-0.2903;-0.7508;1.0471;-0.1793;0.0;8.34;-45.3;-14.52;180.34;-87.73;-151.55;0.0;997.03;40.857;55.701347;13.169365;239.35;NaN;;;51.658066;;0 / 2;71049;2020-12-03 17:24:14:832
-0.6058;9.0863;-0.3591;-0.3418;9.7981;-0.2233;0.8087;0.617;-0.6458;0.3158;0.5731;-0.0436;0.0;13.26;-47.7;-9.06;74.88;-87.61;123.16;0.0;997.04;46.919;55.701347;13.169365;239.35;NaN;;;51.658066;;0 / 2;71548;2020-12-03 17:24:15:331
1.1253;10.0703;0.2179;0.1882;9.7896;-0.546;0.566;0.2328;0.7423;0.2412;0.6012;-0.1902;0.0;12.9;-50.1;0.36;120.91;-86.86;-159.49;0.0;997.01;46.49;55.701347;13.169365;239.35;NaN;;;51.658066;;0 / 2;72049;2020-12-03 17:24:15:832
-1.2426;9.6441;0.6201;-0.7765;9.7598;0.5592;-0.5499;-0.0487;-0.0277;-0.2261;0.7338;-0.2074;0.0;15.72;-50.52;1.8;301.72;-84.4;54.24;0.0;997.02;53.484;55.701347;13.169365;239.35;NaN;;;51.658066;;0 / 2;72548;2020-12-03 17:24:16:331
-0.5411;9.3712;0.3759;-0.5172;9.7806;-0.4925;0.6753;-0.1987;0.7392;0.3811;0.8889;0.1628;0.0;9.3;-47.76;16.98;337.44;-85.82;133.6;0.0;997.04;52.799;55.701347;13.169365;239.35;NaN;;;51.658066;;0 / 2;73048;2020-12-03 17:24:16:831
-2.9186;11.5021;-0.4573;-0.696;9.7667;-0.5461;-2.2226;1.7354;0.0887;-0.4209;1.9616;-0.3375;0.0;8.04;-46.08;26.16;344.07;-83.61;150.02;0.0;997.06;50.078;55.701347;13.169365;239.35;NaN;;;51.658066;;0 / 2;73549;2020-12-03 17:24:17:332
-0.8308;10.1302;0.1006;-0.6951;9.7757;0.3513;-0.2482;0.1917;0.027;0.1417;1.2927;0.398;0.0;-13.08;-49.44;24.84;211.64;-85.44;63.19;0.0;997.07;62.126;55.701347;13.169365;239.35;NaN;;;51.658066;;0 / 5;74048;2020-12-03 17:24:17:831
0.7518;9.4837;-0.328;0.5759;9.7673;-0.6626;0.2047;-0.3266;0.2124;0.3213;-0.5765;0.318;0.0;-14.16;-42.96;26.7;15.6;-84.86;-139.0;0.0;997.01;61.133;55.701347;13.169365;239.35;NaN;;;51.658066;;0 / 5;74548;2020-12-03 17:24:18:331
-0.6105;8.0663;-1.1493;-0.0834;9.8055;-0.123;-2.0068;-0.5971;-0.5928;-0.1656;0.0465;-0.4706;0.0;-1.32;-44.58;20.76;321.99;-89.13;145.86;0.0;997.06;57.751;55.701347;13.169365;239.35;NaN;;;51.658066;;0 / 4;75049;2020-12-03 17:24:18:832
2.6145;10.6066;-0.9386;-0.619;9.7855;-0.1764;3.2336;0.8211;-0.7621;0.3952;0.308;0.0529;0.0;-6.3;-42.36;13.8;252.77;-86.24;105.91;0.0;997.02;58.054;55.701347;13.169365;239.35;NaN;;;51.658066;;0 / 4;75548;2020-12-03 17:24:19:331
2.3679;7.4223;-3.1724;0.1329;9.7004;-1.4333;3.0084;-0.9326;-1.8109;-0.9615;-0.0995;-0.1878;0.0;-9.66;-40.5;15.18;318.87;-81.56;-174.7;0.0;997.06;53.745;55.701347;13.169365;239.35;NaN;;;51.658066;;0 / 5;76048;2020-12-03 17:24:19:831
3.2754;18.4072;3.2442;-0.5394;9.7653;0.7202;3.8147;8.6419;2.5241;0.7751;0.4405;-0.5152;0.0;-12.36;-43.2;2.16;152.35;-86.85;47.74;0.0;997.01;59.379;55.701347;13.169365;239.35;NaN;;;51.658066;;0 / 5;76548;2020-12-03 17:24:20:331
-0.5603;9.2323;-1.4078;0.3633;9.6731;-1.571;-1.3402;-0.2301;1.1329;0.2877;-0.4733;-0.01;0.0;-10.86;-42.42;7.08;283.92;-80.54;-166.98;0.0;997.01;56.861;55.701347;13.169365;239.35;NaN;;;51.658066;;0 / 5;77048;2020-12-03 17:24:20:831
-0.8739;9.4718;0.7805;-0.3744;9.7943;0.3176;-0.9544;-0.6889;0.5012;0.3976;0.4564;0.3143;0.0;-11.76;-42.12;-3.12;132.79;-87.13;49.69;0.0;997.02;56.092;55.701347;13.169365;239.35;NaN;;;51.658066;;0 / 5;77548;2020-12-03 17:24:21:331
0.0431;9.5172;-0.4908;0.2951;9.7214;-1.2556;-0.252;-0.2042;0.7648;0.7874;-0.3511;0.1634;0.0;-9.54;-42.18;2.94;273.33;-84.76;-171.74;0.0;997.02;62.361;55.701347;13.169365;239.35;NaN;;;51.658066;;0 / 4;78048;2020-12-03 17:24:21:831
0.0718;7.8365;-0.0623;-0.4217;9.7959;-0.1822;0.4935;-1.9594;0.1199;-0.482;0.4192;-0.4908;0.0;-5.34;-42.84;3.36;221.2;-87.32;113.37;0.0;997.06;58.041;55.701347;13.169365;239.35;NaN;;;51.658066;;0 / 4;78548;2020-12-03 17:24:22:331
-0.2442;8.277;0.0215;-0.576;9.7868;-0.238;2.0198;0.3075;0.5014;0.6664;0.3049;0.2697;0.0;-3.9;-47.94;-0.18;192.77;-86.36;112.45;0.0;997.0;58.535;55.701347;13.169365;239.35;NaN;;;51.658066;;0 / 4;79049;2020-12-03 17:24:22:832
-0.0215;10.1541;-1.6185;-0.0567;9.7618;-0.935;2.4246;-1.3531;-2.3188;-0.9383;-0.4415;-0.0119;0.0;4.92;-45.24;12.12;28.28;-84.52;176.53;0.0;997.05;54.484;55.701347;13.169365;239.35;NaN;;;51.658066;;0 / 4;79548;2020-12-03 17:24:23:331
-1.4318;8.2148;-0.6608;-0.4979;9.7898;0.2855;0.4165;-1.666;-0.2161;0.5955;0.0624;-0.0913;0.0;-7.5;-46.26;16.38;211.91;-86.64;60.17;0.0;997.02;58.472;55.701347;13.169365;239.35;NaN;;;51.658066;;0 / 4;80048;2020-12-03 17:24:23:831
-1.5228;10.4821;-1.1564;0.1141;9.622;-1.8905;-1.1699;0.2017;1.3302;0.1264;-0.4043;0.0413;0.0;-5.82;-43.2;26.58;346.73;-78.86;-176.55;0.0;997.04;53.292;55.701347;13.169365;239.35;NaN;;;51.658066;;0 / 4;80548;2020-12-03 17:24:24:331
-0.6512;9.9434;1.0415;-0.3243;9.8008;0.0948;-0.6167;0.382;1.3322;-0.1644;0.2781;0.1885;0.0;-8.28;-50.52;15.3;222.43;-87.59;75.37;0.0;997.01;57.086;55.701347;13.169365;239.35;NaN;;;51.658066;;0 / 4;81048;2020-12-03 17:24:24:831
-0.0359;9.8213;-0.3879;0.3327;9.6975;-1.4202;-0.541;0.0711;1.0275;0.6524;-0.5943;0.2325;0.0;-9.0;-47.04;21.18;345.41;-81.45;-166.82;0.0;997.03;62.326;55.701347;13.169365;239.35;NaN;;;51.658066;;0 / 4;81549;2020-12-03 17:24:25:332
-1.8077;9.8165;0.9146;-0.497;9.7939;0.0441;0.0899;-0.7891;0.3223;-0.5199;0.253;-0.1957;0.0;-6.78;-48.78;14.1;231.26;-87.08;84.93;0.0;997.05;59.709;55.701347;13.169365;239.35;NaN;;;51.658066;;0 / 5;82048;2020-12-03 17:24:25:831
0.4453;8.787;-0.5267;-0.312;9.7845;-0.5804;1.5594;-0.8395;0.6378;0.5583;-0.1447;0.1854;0.0;-8.22;-45.66;16.08;296.19;-86.15;151.74;0.0;997.04;62.638;55.701347;13.169365;239.35;NaN;;;51.658066;;0 / 5;82549;2020-12-03 17:24:26:332
-0.9266;8.8947;-1.1708;0.0921;9.8037;-0.2204;-1.9477;0.3217;-0.3303;-0.3873;-0.4183;-0.1933;0.0;-1.44;-46.56;14.34;20.22;-88.6;-157.31;0.0;997.06;53.393;55.701347;13.169365;239.35;NaN;;;51.658066;;0 / 4;83048;2020-12-03 17:24:26:831
-0.079;8.3393;-0.9314;-0.3739;9.7993;0.0659;-0.2414;-1.6204;0.3555;0.3927;-0.2119;0.1696;0.0;-0.9;-46.86;15.78;250.3;-87.78;80.0;0.0;997.03;53.939;55.701347;13.169365;239.35;NaN;;;51.658066;;0 / 4;83550;2020-12-03 17:24:27:333
-1.0463;9.1078;-0.9026;0.2362;9.6408;-1.7804;-1.4741;-0.169;0.3989;0.3164;-0.6725;-0.0369;0.0;1.62;-40.26;25.08;17.44;-79.45;-172.44;0.0;997.03;49.383;55.701347;13.169365;239.35;NaN;;;51.658066;;0 / 4;84048;2020-12-03 17:24:27:831
-0.5028;9.455;1.4102;-0.9003;9.7634;0.1868;0.4334;-0.2198;1.3863;0.1288;2.1754;0.2233;0.0;-9.96;-49.2;16.02;217.8;-84.62;78.28;0.0;997.02;51.646;55.701347;13.169365;239.35;NaN;;;51.658066;;0 / 4;84548;2020-12-03 17:24:28:331
1.5036;9.6465;0.4884;0.116;9.7967;-0.4245;1.3708;0.0294;0.7908;0.4428;1.7551;0.2001;0.0;-57.0;-52.86;-0.9;281.93;-87.43;-164.72;0.0;997.0;60.41;55.701347;13.169365;239.35;NaN;;;51.658066;;0 / 4;85048;2020-12-03 17:24:28:831
-1.1014;11.9307;-0.2706;-0.3304;9.8006;0.0945;-0.1892;2.8268;-1.2294;-1.369;1.3422;-0.3472;0.0;-3.06;-50.88;-25.5;84.93;-87.99;74.03;0.0;997.05;50.397;55.701347;13.169365;239.35;NaN;;;51.658066;;0 / 4;85549;2020-12-03 17:24:29:332
-1.0798;8.7654;-0.929;-0.8506;9.7492;0.632;-0.2292;-0.9838;-1.561;0.5467;2.3544;0.2184;0.0;-3.66;-41.76;-18.36;80.09;-83.8;53.39;0.0;997.04;54.129;55.701347;13.169365;239.35;NaN;;;51.658066;;0 / 4;86047;2020-12-03 17:24:29:830
1.585;10.4893;0.3424;0.4898;9.7888;-0.332;1.0952;0.7006;0.6744;0.51;0.7362;-0.1151;0.0;-0.18;-42.48;-13.14;227.63;-86.54;-124.13;0.0;996.98;50.126;55.701347;13.169365;239.35;NaN;;;51.658066;;0 / 4;86548;2020-12-03 17:24:30:331
-0.486;9.1054;0.2825;-0.1324;9.8033;0.2196;-0.2986;-0.729;-0.0664;-0.0196;0.1687;0.0022;0.0;5.28;-43.08;-15.3;13.61;-88.5;31.08;0.0;997.01;54.425;55.701347;13.169365;239.35;NaN;;;51.658066;;0 / 4;87049;2020-12-03 17:24:30:832
0.0718;8.8612;-0.4669;0.3737;9.7495;-0.989;0.1099;-1.3049;0.5269;0.1288;-0.9657;0.1506;0.0;2.4;-46.92;-13.2;188.67;-83.81;-159.3;0.0;997.05;60.613;55.701347;13.169365;239.35;NaN;;;51.658066;;0 / 4;87548;2020-12-03 17:24:31:331
-0.2059;6.5771;-2.6122;0.1812;9.7137;-1.3348;-0.3871;-3.1366;-1.2774;-0.8773;-0.1465;-0.1371;0.0;-0.78;-50.46;-14.04;187.99;-82.11;-172.27;0.0;997.04;51.673;55.701347;13.169365;239.35;NaN;;;51.658066;;0 / 4;88049;2020-12-03 17:24:31:832
1.7718;9.1198;-2.3991;-0.1834;9.7965;0.4065;4.1507;12.7025;1.6215;-1.1277;-0.557;-0.0778;0.0;2.34;-49.08;-24.54;21.61;-87.39;24.28;0.0;997.02;53.065;55.701347;13.169365;239.35;NaN;;;51.658066;;0 / 4;88548;2020-12-03 17:24:32:331
-1.3456;9.5723;-0.3017;0.1501;9.6561;-1.7051;-0.7247;-0.2777;1.5997;0.1624;-0.4067;-0.1005;0.0;0.0;-53.46;-13.02;186.55;-79.92;-168.87;0.0;997.01;62.866;55.701347;13.169365;239.35;NaN;;;51.658066;;0 / 4;89048;2020-12-03 17:24:32:831
-0.5435;9.9602;1.0583;-0.3668;9.799;0.1215;-0.4616;-0.2363;0.6112;0.2455;0.4882;0.3137;0.0;4.02;-50.88;-25.38;66.79;-87.74;71.68;0.0;996.97;55.829;55.701347;13.169365;239.35;NaN;;;51.658066;;0 / 4;89548;2020-12-03 17:24:33:331
-0.1293;10.2355;-0.2753;0.1989;9.7485;-1.0475;-0.1151;0.602;0.5447;0.5815;-0.2736;0.3009;0.0;1.62;-53.28;-20.28;183.94;-83.76;-169.25;0.0;996.97;53.767;55.701347;13.169365;239.35;NaN;;;51.658066;;0 / 4;90049;2020-12-03 17:24:33:832
0.3687;8.9498;0.2346;-0.4748;9.7949;0.0597;0.3288;-0.0909;0.3832;-0.4319;0.129;-0.2825;0.0;-1.2;-50.04;-28.2;139.01;-88.48;135.2;0.0;997.0;54.563;55.701347;13.169365;239.35;NaN;;;51.658066;;0 / 4;90548;2020-12-03 17:24:34:331
0.6177;7.8915;-0.1413;-0.2405;9.7819;-0.6534;1.021;-1.5216;0.5744;0.6041;-0.2839;0.3107;0.0;-2.04;-50.28;-24.72;166.26;-85.93;159.79;0.0;997.0;62.885;55.701347;13.169365;239.35;NaN;;;51.658066;;0 / 4;91049;2020-12-03 17:24:34:832
-2.3344;11.3441;-1.1062;0.2693;9.7837;-0.6134;-1.3371;0.4183;-0.8352;-1.1918;-0.6303;0.0437;0.0;-10.2;-47.94;-19.86;224.43;-86.08;-156.3;0.0;997.01;50.699;55.701347;13.169365;239.35;NaN;;;51.658066;;0 / 4;91548;2020-12-03 17:24:35:331
-0.2275;8.605;-1.3695;-0.6096;9.7862;0.1712;0.3822;-1.1812;-1.5407;0.3836;-0.5393;0.04;0.0;-8.82;-45.96;-20.34;106.0;-86.3;74.31;0.0;996.98;58.836;55.701347;13.169365;239.35;NaN;;;51.658066;;0 / 4;92048;2020-12-03 17:24:35:831
-1.2091;9.7734;-0.7901;-0.1009;9.6978;-1.4537;-1.1082;0.0757;0.6636;-0.0208;-0.7073;-0.043;0.0;-13.08;-47.28;-7.02;220.19;-81.45;176.03;0.0;997.01;59.053;55.701347;13.169365;239.35;NaN;;;51.658066;;0 / 4;92548;2020-12-03 17:24:36:331
-1.4581;9.4478;0.8141;-0.774;9.7729;0.2468;-0.969;-0.3682;0.8761;0.3091;0.4314;0.2673;0.0;-9.3;-46.5;-14.22;116.8;-85.25;72.31;0.0;996.96;56.124;55.701347;13.169365;239.35;NaN;;;51.658066;;0 / 4;93049;2020-12-03 17:24:36:832
0.3424;10.0536;-0.5243;-0.162;9.7676;-0.8587;0.5044;0.2859;0.3344;0.6976;0.0899;0.1262;0.0;-10.26;-47.52;-8.88;200.29;-86.01;157.17;0.0;996.97;59.588;55.701347;13.169365;239.35;NaN;;;51.658066;;0 / 4;93548;2020-12-03 17:24:37:331
-2.4493;10.0871;-0.2394;-0.331;9.7983;-0.2318;-2.3793;1.8115;-0.8456;-1.0501;0.7796;0.004;0.0;-13.86;-45.96;-2.76;200.29;-87.64;125.0;0.0;997.03;51.152;55.701347;13.169365;239.35;NaN;;;51.658066;;0 / 4;94048;2020-12-03 17:24:37:831
1.3264;10.6904;-0.0383;-0.8946;9.7575;0.4019;0.5355;0.2554;0.4529;0.1533;1.9995;0.2245;0.0;-14.28;-49.44;-12.66;124.97;-84.26;65.81;0.0;997.01;53.369;55.701347;13.169365;239.35;NaN;;;51.658066;;0 / 4;94548;2020-12-03 17:24:38:331
1.7335;9.7998;1.166;0.8569;9.7672;0.1952;0.8766;0.0326;0.9708;0.3817;1.7008;-0.051;0.0;1.86;-51.54;-13.68;256.04;-84.86;-77.16;0.0;997.0;58.506;55.701347;13.169365;239.35;NaN;;;51.658066;;0 / 4;95048;2020-12-03 17:24:38:831
-0.3041;9.522;0.6177;-0.8537;9.7496;0.6215;0.5497;-0.2276;-0.0038;-0.4887;1.7447;-0.1334;0.0;10.86;-49.44;-10.98;13.6;-83.82;53.95;0.0;997.01;53.388;55.701347;13.169365;239.35;NaN;;;51.658066;;0 / 4;95549;2020-12-03 17:24:39:332
0.5028;9.6298;-1.2929;-1.0087;9.7307;0.6822;-0.3968;-0.496;-0.5169;0.3567;0.5798;0.2679;0.0;8.04;-44.88;-2.58;323.06;-82.87;55.93;0.0;997.02;51.592;55.701347;13.169365;239.35;NaN;;;51.658066;;0 / 4;96048;2020-12-03 17:24:39:831
0.0215;10.5468;-0.3807;0.1319;9.7085;-1.3776;-0.1103;0.8383;0.9969;0.3469;-0.0738;0.0584;0.0;3.6;-45.42;4.8;101.6;-83.06;-173.86;0.0;997.01;50.051;55.701347;13.169365;239.35;NaN;;;51.658066;;0 / 4;96548;2020-12-03 17:24:40:331
-0.917;9.1629;1.3743;-0.7501;9.7626;0.5477;-0.1071;-0.4632;0.7596;-0.1069;0.8877;0.0901;0.0;6.12;-45.18;-0.24;279.03;-84.57;53.86;0.0;996.98;52.978;55.701347;13.169365;239.35;NaN;;;51.658066;;0 / 5;97049;2020-12-03 17:24:40:832
0.0383;8.7918;-0.6249;-0.0557;9.7814;-0.7;0.2161;-1.4829;0.3744;0.2449;-0.3548;0.1268;0.0;-1.08;-42.9;10.32;345.22;-85.89;175.45;0.0;997.02;61.683;55.701347;13.169365;239.35;NaN;;;51.658066;;0 / 5;97548;2020-12-03 17:24:41:331
-1.1971;11.4494;-1.0271;0.1541;9.794;-0.4732;-1.3512;1.6554;-0.5539;-1.405;-0.1019;-0.0681;0.0;0.12;-41.64;11.52;21.85;-87.09;-161.96;0.0;997.05;54.389;55.701347;13.169365;239.35;NaN;;;51.658066;;0 / 5;98048;2020-12-03 17:24:41:831
-0.5531;7.87;0.0048;-0.5245;9.7779;0.537;-0.0286;-1.9079;-0.5322;0.6634;0.4564;-0.167;0.0;3.72;-46.74;8.28;232.36;-85.61;44.33;0.0;996.99;57.884;55.701347;13.169365;239.35;NaN;;;51.658066;;0 / 5;98549;2020-12-03 17:24:42:332
-1.3216;10.5061;-1.1852;0.3777;9.6477;-1.7176;-0.7057;0.6046;1.9475;0.2406;-0.2784;0.0523;0.0;-2.82;-40.8;27.96;8.68;-79.67;-167.6;0.0;997.0;52.434;55.701347;13.169365;239.35;NaN;;;51.658066;;0 / 5;99048;2020-12-03 17:24:42:831
-0.8428;10.6114;1.6497;-0.3518;9.7956;0.3028;-0.5963;0.4303;1.0739;-0.11;0.3471;0.1262;0.0;-3.24;-50.64;16.44;216.46;-86.97;52.7;0.0;996.97;57.036;55.701347;13.169365;239.35;NaN;;;51.658066;;0 / 5;99549;2020-12-03 17:24:43:332
0.6201;9.7016;-0.4501;0.3441;9.6962;-1.4264;-0.2172;0.5153;1.0313;0.8405;-0.2076;0.1757;0.0;-13.02;-43.32;24.78;341.8;-81.39;-166.44;0.0;996.98;60.427;55.701347;13.169365;239.35;NaN;;;51.658066;;0 / 5;100048;2020-12-03 17:24:43:831
-0.9888;10.1517;0.2131;-0.3053;9.8018;0.0304;-0.0898;-0.9957;0.1419;-0.4777;0.4265;-0.4205;0.0;-10.14;-48.84;15.0;227.06;-88.21;84.3;0.0;997.04;53.501;55.701347;13.169365;239.35;NaN;;;51.658066;;0 / 5;100548;2020-12-03 17:24:44:331
0.3639;8.969;-0.6465;-0.0998;9.7815;-0.6942;0.7894;-1.1645;0.292;0.5003;0.1589;0.1744;0.0;-13.38;-46.14;15.0;302.82;-85.9;171.82;0.0;996.99;65.401;55.701347;13.169365;239.35;NaN;;;51.658066;;0 / 5;101048;2020-12-03 17:24:44:831
-2.593;10.9466;-0.6584;-0.1514;9.7829;-0.6649;-0.4472;1.3864;-0.3718;-1.2364;0.6458;-0.0607;0.0;-8.46;-45.42;14.64;311.04;-86.01;167.18;0.0;997.02;53.529;55.701347;13.169365;239.35;NaN;;;51.658066;;0 / 5;101549;2020-12-03 17:24:45:332
-1.7933;8.5811;-1.1493;-0.5306;9.7784;0.5203;-0.1901;-0.503;-0.4867;0.4532;1.2561;0.0584;0.0;-17.28;-48.9;2.82;151.41;-85.65;45.56;0.0;997.0;55.148;55.701347;13.169365;239.35;NaN;;;51.658066;;0 / 5;102049;2020-12-03 17:24:45:832
-0.9194;10.3265;-2.095;0.3862;9.7124;-1.3003;-1.5761;-0.3914;-0.4715;0.0116;0.0533;-0.1658;0.0;-23.16;-45.36;8.76;294.32;-82.05;-163.46;0.0;996.98;49.595;55.701347;13.169365;239.35;NaN;;;51.658066;;0 / 5;102548;2020-12-03 17:24:46:331
-1.7311;9.5771;1.1014;-0.4582;9.7891;0.3654;-1.2728;-0.212;0.736;0.1319;0.4986;0.3491;0.0;-20.64;-46.14;-3.84;135.75;-86.57;51.43;0.0;997.01;56.873;55.701347;13.169365;239.35;NaN;;;51.658066;;0 / 5;103048;2020-12-03 17:24:46:831
0.1293;9.3927;-0.3496;0.3536;9.7551;-0.9398;-0.6122;-0.7742;0.8584;0.3781;-0.4758;0.2038;0.0;-25.68;-44.4;4.68;293.54;-85.83;-160.92;0.0;996.99;59.678;55.701347;13.169365;239.35;NaN;;;51.658066;;0 / 5;103549;2020-12-03 17:24:47:332
-0.3855;8.5739;0.2658;-0.16;9.8015;-0.2735;-1.5232;0.3526;-0.2628;-0.1943;0.4094;-0.4315;0.0;-27.0;-45.42;3.9;245.33;-88.15;149.67;0.0;996.99;49.851;55.701347;13.169365;239.35;NaN;;;51.658066;;0 / 5;104049;2020-12-03 17:24:47:832
2.3368;9.1868;-0.34;-0.4113;9.7886;-0.428;2.7481;-0.6018;0.088;0.7391;1.118;-0.0968;0.0;-30.06;-54.9;-13.44;171.33;-87.51;104.14;0.0;996.99;58.244;55.701347;13.169365;239.35;NaN;;;51.658066;;0 / 5;104548;2020-12-03 17:24:48:331
1.6329;8.9139;-1.2953;0.1356;9.7329;-1.1928;1.0113;0.8211;-0.0354;-0.49;1.1546;-0.4254;0.0;-23.16;-66.18;-25.32;220.41;-82.97;-173.51;0.0;997.01;56.789;55.701347;13.169365;239.35;NaN;;;51.658066;;0 / 5;105048;2020-12-03 17:24:48:831
0.012;9.4694;1.5515;-0.732;9.7612;0.5938;1.0505;-0.5217;0.9721;0.0201;1.8755;0.2172;0.0;11.28;-52.92;-28.68;35.83;-84.48;50.95;0.0;996.99;56.739;55.701347;13.169365;239.35;NaN;;;51.658066;;0 / 5;105549;2020-12-03 17:24:49:332
1.7598;9.3544;0.2394;0.3408;9.7865;-0.5283;1.419;-0.432;0.7677;0.3787;1.2787;-0.0595;0.0;18.78;-49.74;-1.2;132.88;-86.32;-147.17;0.0;996.97;55.216;55.701347;13.169365;239.35;NaN;;;51.658066;;0 / 5;106048;2020-12-03 17:24:49:831
-0.6848;10.2451;-0.9529;-0.3052;9.8016;0.0755;-0.3796;0.4435;-1.0284;-0.6323;1.2188;-0.4157;0.0;18.06;-44.04;9.06;316.77;-88.16;76.1;0.0;997.04;53.582;55.701347;13.169365;239.35;NaN;;;51.658066;;0 / 5;106549;2020-12-03 17:24:50:332
0.2873;8.0591;-1.6497;-0.6207;9.7687;0.5973;-1.0768;-1.4438;-1.7083;0.6291;0.7558;0.1537;0.0;12.48;-45.66;11.28;259.45;-84.96;46.1;0.0;997.02;63.845;55.701347;13.169365;239.35;NaN;;;51.658066;;0 / 5;107049;2020-12-03 17:24:50:832
-1.8125;11.4015;-2.1932;0.2505;9.7442;-1.076;-2.063;1.6573;-1.1172;-0.7563;0.03;0.1531;0.0;11.46;-43.92;17.16;62.08;-82.67;-165.29;0.0;997.02;55.777;55.701347;13.169365;239.35;NaN;;;51.658066;;0 / 5;107548;2020-12-03 17:24:51:331
-0.838;9.4622;0.1365;-0.2071;9.7997;0.3039;-0.6716;-0.474;0.0265;0.1912;-0.0078;0.3382;0.0;13.56;-46.62;2.58;285.35;-87.85;34.28;0.0;997.02;54.784;55.701347;13.169365;239.35;NaN;;;51.658066;;0 / 5;108048;2020-12-03 17:24:51:831
0.0287;11.0089;-0.8021;0.3875;9.784;-0.542;-0.275;0.3151;-0.1643;-0.0666;-1.2369;0.1396;0.0;11.52;-47.82;2.64;124.1;-86.1;-144.44;0.0;996.99;58.369;55.701347;13.169365;239.35;NaN;;;51.658066;;0 / 5;108548;2020-12-03 17:24:52:331
0.9457;7.5563;-0.3448;-0.1212;9.8043;-0.1773;1.0669;-2.248;-0.1675;-0.4399;-0.7317;-0.4102;0.0;8.94;-47.7;-11.22;110.33;-88.75;145.65;0.0;997.05;52.105;55.701347;13.169365;239.35;NaN;;;51.658066;;0 / 5;109049;2020-12-03 17:24:52:832
1.2738;10.0607;-0.9314;-0.5345;9.7901;-0.1935;1.8083;0.2706;-0.7379;0.4838;-0.353;0.0364;0.0;5.4;-48.24;-15.72;75.26;-86.5;82.85;0.0;997.02;60.36;55.701347;13.169365;239.35;NaN;;;51.658066;;0 / 5;109548;2020-12-03 17:24:53:331
2.2626;7.1996;-3.0695;-0.1198;9.7155;-1.3282;2.6697;0.2566;-2.1723;-0.8076;-0.6309;-0.0143;0.0;-1.44;-50.94;-12.9;179.5;-82.18;174.85;0.0;997.01;50.107;55.701347;13.169365;239.35;NaN;;;51.658066;;0 / 5;110049;2020-12-03 17:24:53:832
0.9026;17.495;-0.6776;-0.5997;9.7734;0.5396;2.8647;5.629;2.0797;-0.4997;-0.7818;-0.4224;0.0;2.1;-51.18;-25.26;82.3;-86.24;79.24;0.0;997.02;52.932;55.701347;13.169365;239.35;NaN;;;51.658066;;0 / 5;110548;2020-12-03 17:24:54:331
-0.7805;9.3903;0.0072;0.1806;9.6925;-1.4809;-0.5805;-0.6278;1.4354;0.4178;-0.8563;0.0614;0.0;-2.76;-54.84;-17.4;191.53;-81.25;-173.05;0.0;996.99;62.101;55.701347;13.169365;239.35;NaN;;;51.658066;;0 / 5;111048;2020-12-03 17:24:54:831
-1.439;9.0863;0.237;-0.1468;9.7929;-0.4985;-1.6106;-0.9987;0.5296;0.1918;-0.6951;0.15;0.0;-9.24;-51.9;-24.54;183.08;-86.96;163.59;0.0;997.02;59.909;55.701347;13.169365;239.35;NaN;;;51.658066;;0 / 5;111548;2020-12-03 17:24:55:331
-0.4046;10.3097;-0.1772;0.4116;9.7696;-0.7457;-0.8162;0.5402;0.5686;0.259;-1.5539;0.2129;0.0;-20.52;-51.54;-15.72;252.84;-85.46;-151.33;0.0;997.03;61.01;55.701347;13.169365;239.35;NaN;;;51.658066;;0 / 5;112049;2020-12-03 17:24:55:832
-1.2881;10.7886;-1.4222;-0.1401;9.8025;-0.2483;-1.3971;2.1809;-0.8124;-0.7251;-0.8288;-0.1573;0.0;-24.18;-51.42;-4.8;226.31;-88.33;150.57;0.0;997.03;49.711;55.701347;13.169365;239.35;NaN;;;51.658066;;0 / 5;112549;2020-12-03 17:24:56:332
-0.3184;8.0448;-0.9529;-0.464;9.7361;-1.0788;0.5909;-1.2962;-0.0704;0.5442;-0.2864;0.2453;0.0;-21.12;-52.32;2.76;240.2;-83.12;156.73;0.0;997.05;56.619;55.701347;13.169365;239.35;NaN;;;51.658066;;0 / 5;113048;2020-12-03 17:24:56:831
0.1173;10.6785;-0.735;0.1299;9.7033;-1.4137;-0.1658;0.051;0.76;0.4062;0.1712;-0.0882;0.0;-21.78;-53.76;3.66;267.93;-82.16;-172.99;0.0;997.01;51.006;55.701347;13.169365;239.35;NaN;;;51.658066;;0 / 5;113549;2020-12-03 17:24:57:332
-1.5946;9.6944;-0.3017;-0.1337;9.7839;-0.6541;0.1888;-1.799;0.0411;-0.8742;1.0917;-0.3381;0.0;-14.88;-54.96;-12.24;213.65;-86.1;168.45;0.0;997.03;63.212;55.701347;13.169365;239.35;NaN;;;51.658066;;0 / 5;114048;2020-12-03 17:24:57:831
3.2562;10.2403;0.3639;-0.5231;9.7916;0.1435;3.2143;-0.1499;0.4072;0.1288;1.2848;0.2771;0.0;0.36;-47.1;-21.24;81.72;-86.83;74.66;0.0;997.02;56.017;55.701347;13.169365;239.35;NaN;;;51.658066;;0 / 5;114548;2020-12-03 17:24:58:331
-3.6082;9.8548;-0.2514;-0.0836;9.8033;0.2405;-3.5246;0.0515;-0.4919;0.1178;0.9567;0.0681;0.0;5.4;-44.64;-17.1;320.1;-88.69;-21.36;0.0;997.0;50.744;55.701347;13.169365;239.35;NaN;;;51.658066;;0 / 5;115048;2020-12-03 17:24:58:831
-0.103;8.6146;-0.2299;1.0587;9.7402;-0.4224;-1.1617;-1.1256;0.1926;0.1655;-0.2393;-0.0766;0.0;3.66;-41.28;-10.2;212.75;-83.33;-111.75;0.0;997.03;51.729;55.701347;13.169365;239.35;NaN;;;51.658066;;0 / 5;115549;2020-12-03 17:24:59:332
-0.7135;9.716;-1.7789;0.7531;9.7239;-1.0244;-1.888;0.1597;1.0747;0.2706;0.0649;0.0113;0.0;3.06;-41.28;-6.48;185.47;-82.55;-143.68;0.0;996.98;52.941;55.701347;13.169365;239.35;NaN;;;51.658066;;0 / 5;116048;2020-12-03 17:24:59:831
-1.0032;9.5388;0.4429;-0.3833;9.7934;0.3351;-0.6199;-0.2546;0.1079;0.025;0.7466;0.1415;0.0;2.34;-41.88;-10.2;46.62;-87.1;49.17;0.0;996.97;56.505;55.701347;13.169365;239.35;NaN;;;51.658066;;0 / 5;116549;2020-12-03 17:25:00:332
0.9026;9.886;-0.5339;0.126;9.8015;-0.2914;0.1134;-0.1621;-0.0629;-0.0013;-0.2473;0.1225;0.0;0.18;-47.52;-6.72;199.2;-88.14;-156.62;0.0;997.0;62.603;55.701347;13.169365;239.35;NaN;;;51.658066;;0 / 5;117048;2020-12-03 17:25:00:831
-2.0447;10.8963;-2.5691;-0.2959;9.6613;-1.656;-3.0417;0.3013;-0.0678;0.1826;0.2536;-0.1976;0.0;2.76;-48.84;-2.82;162.13;-80.12;169.87;0.0;996.99;49.273;55.701347;13.169365;239.35;NaN;;;51.658066;;0 / 5;117548;2020-12-03 17:25:01:331
-2.605;9.7447;0.328;-2.4946;9.4781;0.3359;-0.3019;0.4318;-0.0534;-0.4906;1.242;-0.3723;0.0;18.12;-44.76;-11.46;50.09;-75.13;82.33;0.0;997.01;63.975;55.701347;13.169365;239.35;NaN;;;51.658066;;0 / 5;118048;2020-12-03 17:25:01:831
0.4477;11.0759;0.4812;-0.3253;9.7221;-1.2432;3.2726;2.5055;0.8864;-0.4558;-0.6315;0.0443;0.0;5.04;-53.22;15.96;4.66;-82.47;165.34;0.0;997.01;54.048;55.701347;13.169365;239.35;NaN;;;51.658066;;0 / 5;118548;2020-12-03 17:25:02:331
0.3328;9.0863;-0.0551;0.8137;9.7469;-0.7107;-0.4282;-0.8139;1.0124;0.0537;-0.3994;0.2013;0.0;-48.36;-70.2;22.5;341.76;-83.68;-131.13;0.0;996.96;61.286;55.701347;13.169365;239.35;NaN;;;51.658066;;0 / 5;119048;2020-12-03 17:25:02:831
-1.1133;9.8333;0.5052;-0.9722;9.723;0.8292;-0.9169;-0.0382;-0.5994;-1.0446;0.2787;-0.6234;0.0;-30.66;-56.22;-38.82;96.4;-82.51;49.54;0.0;996.98;58.402;55.701347;13.169365;239.35;NaN;;;51.658066;;0 / 5;119548;2020-12-03 17:25:03:331
1.1445;13.3026;-0.1844;-0.759;9.7489;0.744;3.9027;5.3016;-1.8765;-0.0263;0.0765;0.2667;0.0;4.38;-50.16;-24.24;61.0;-83.26;58.05;0.0;997.03;52.98;55.701347;13.169365;239.35;NaN;;;51.658066;;0 / 5;120048;2020-12-03 17:25:03:831
0.2107;10.5803;0.2562;0.3766;9.7821;-0.5818;0.095;0.9634;0.6704;0.4239;-0.2174;0.2117;0.0;4.5;-49.38;-7.92;180.67;-85.95;-147.08;0.0;996.92;58.556;55.701347;13.169365;239.35;NaN;;;51.658066;;0 / 5;120549;2020-12-03 17:25:04:332
-0.3663;9.8093;0.9098;-0.5357;9.7892;0.2346;1.5485;-1.4356;0.3568;-0.7618;0.52;-0.3766;0.0;8.4;-45.9;-11.46;37.42;-86.58;66.35;0.0;997.02;55.926;55.701347;13.169365;239.35;NaN;;;51.658066;;0 / 5;121048;2020-12-03 17:25:04:831
1.5443;8.2818;0.34;-0.0773;9.7935;-0.5017;0.1754;-1.3944;0.7818;0.6646;-0.6798;0.321;0.0;4.86;-43.38;-5.04;138.3;-87.03;171.24;0.0;996.97;62.145;55.701347;13.169365;239.35;NaN;;;51.658066;;0 / 5;121548;2020-12-03 17:25:05:331
0.4765;8.4805;-1.2043;0.1492;9.7803;-0.7024;1.601;-2.0755;-1.0502;-1.1809;-1.1905;-0.1212;0.0;0.78;-43.8;-5.34;180.42;-85.8;-168.01;0.0;997.02;54.904;55.701347;13.169365;239.35;NaN;;;51.658066;;0 / 5;122048;2020-12-03 17:25:05:831
1.6209;7.8556;-0.5363;-0.7067;9.7461;0.8268;2.275;4.4423;2.5347;-0.3299;-1.2393;-0.5678;0.0;2.52;-44.82;-13.92;42.18;-83.63;40.52;0.0;996.99;59.165;55.701347;13.169365;239.35;NaN;;;51.658066;;0 / 5;122548;2020-12-03 17:25:06:331
-0.9673;9.7734;-0.3041;-0.119;9.6832;-1.5464;-1.0734;-0.3264;0.2798;0.3225;-0.7885;0.0376;0.0;0.6;-45.24;-3.12;173.0;-80.9;175.6;0.0;996.99;55.238;55.701347;13.169365;239.35;NaN;;;51.658066;;0 / 5;123048;2020-12-03 17:25:06:831
-0.4453;9.9243;1.0631;-0.7356;9.777;0.197;-0.1479;-0.7674;1.0026;0.2822;0.4057;0.4011;0.0;3.36;-44.52;-13.92;76.73;-85.55;75.01;0.0;997.0;57.443;55.701347;13.169365;239.35;NaN;;;51.658066;;0 / 5;123549;2020-12-03 17:25:07:332
0.0886;9.8165;-0.182;-0.189;9.7445;-1.086;0.3494;0.187;0.691;0.7428;-0.2711;0.2771;0.0;1.44;-45.18;-9.78;169.58;-83.55;170.13;0.0;996.99;61.11;55.701347;13.169365;239.35;NaN;;;51.658066;;0 / 5;124049;2020-12-03 17:25:07:832
-0.4525;9.5029;0.9194;-0.6246;9.7865;0.0701;0.1721;-0.2836;0.8493;-0.5058;0.4241;-0.3424;0.0;-3.72;-43.38;-14.94;120.28;-87.85;100.22;0.0;997.02;53.08;55.701347;13.169365;239.35;NaN;;;51.658066;;0 / 5;124548;2020-12-03 17:25:08:331
1.7478;9.0312;-0.17;-0.6368;9.7767;-0.4243;2.3846;-0.7455;0.2543;0.777;0.4509;0.2728;0.0;-11.4;-47.88;-20.58;155.07;-85.52;123.68;0.0;996.98;62.156;55.701347;13.169365;239.35;NaN;;;51.658066;;0 / 5;125049;2020-12-03 17:25:08:832
0.0551;7.5827;-2.4829;0.0953;9.7366;-1.1665;1.2575;-1.7014;-1.1512;-0.7899;-0.5478;-0.098;0.0;-16.56;-55.08;-22.8;213.95;-83.15;-175.33;0.0;997.02;53.272;55.701347;13.169365;239.35;NaN;;;51.658066;;0 / 5;125548;2020-12-03 17:25:09:331
2.4206;16.1015;0.2682;-0.2968;9.7828;0.6152;1.6735;1.2692;-0.1316;-0.201;-0.7867;-0.2971;0.0;-24.84;-55.32;-35.82;84.16;-87.56;46.32;0.0;997.01;55.429;55.701347;13.169365;239.35;NaN;;;51.658066;;0 / 5;126048;2020-12-03 17:25:09:831
0.5339;9.048;0.8069;0.4113;9.7699;-0.7414;-0.3251;-0.0492;1.328;0.3481;-1.0878;0.1604;0.0;-34.68;-60.84;-25.08;256.65;-85.04;-150.98;0.0;996.99;51.397;55.701347;13.169365;239.35;NaN;;;51.658066;;0 / 5;126549;2020-12-03 17:25:10:332
-2.2985;10.0081;0.3424;-0.1053;9.8014;0.3027;-1.7024;0.403;-0.1782;-0.4655;-1.0695;-0.2672;0.0;-35.1;-54.18;-28.02;72.68;-88.13;19.17;0.0;997.0;54.595;55.701347;13.169365;239.35;NaN;;;51.658066;;0 / 5;127048;2020-12-03 17:25:10:831
1.3959;10.1565;-0.8715;-0.7683;9.7763;0.0645;2.1642;0.3802;-0.936;0.711;0.1437;0.0156;0.0;-27.48;-54.12;-33.0;128.86;-85.49;85.2;0.0;997.01;59.179;55.701347;13.169365;239.35;NaN;;;51.658066;;0 / 5;127550;2020-12-03 17:25:11:333
-0.2394;11.526;-1.2378;-0.3794;9.7063;-1.3463;0.14;1.8197;0.1085;0.2131;0.4662;-0.3362;0.0;-18.72;-46.86;-17.16;206.03;-81.8;164.26;0.0;997.01;56.913;55.701347;13.169365;239.35;NaN;;;51.658066;;0 / 5;128049;2020-12-03 17:25:11:832
-0.4836;9.6298;0.8763;-0.9523;9.7587;0.1756;0.0281;0.2565;0.9975;-0.0428;2.1516;0.0877;0.0;-4.2;-45.42;-23.52;99.4;-84.33;79.55;0.0;996.99;55.451;55.701347;13.169365;239.35;NaN;;;51.658066;;0 / 5;128548;2020-12-03 17:25:12:331
0.7255;9.7471;0.6105;0.3538;9.797;-0.2528;0.3717;-0.0499;0.8634;-0.0648;1.9078;0.0046;0.0;8.1;-49.44;-14.4;180.75;-87.35;-149.4;0.0;996.99;51.876;55.701347;13.169365;239.35;NaN;;;51.658066;;0 / 5;129048;2020-12-03 17:25:12:831
-0.407;9.7639;-1.1612;0.7359;9.7746;-0.2939;-0.5132;0.2958;-0.6949;-0.0654;0.9793;-0.2788;0.0;9.06;-49.86;2.4;155.93;-85.37;-111.77;0.0;997.01;45.64;55.701347;13.169365;239.35;NaN;;;51.658066;;0 / 5;129548;2020-12-03 17:25:13:331
-0.7757;9.6441;0.2442;-0.6393;9.7621;0.6804;-0.1819;-0.2233;-0.3237;0.3078;0.7955;0.1934;0.0;16.44;-51.84;0.06;297.06;-84.54;43.22;0.0;997.03;54.534;55.701347;13.169365;239.35;NaN;;;51.658066;;0 / 5;130049;2020-12-03 17:25:13:832
0.68;9.5986;-0.103;-0.1015;9.8017;-0.2943;0.5995;-0.4161;0.5217;0.3426;0.647;0.1469;0.0;11.46;-52.74;9.54;348.69;-88.3;122.16;0.0;997.01;60.919;55.701347;13.169365;239.35;NaN;;;51.658066;;0 / 5;130548;2020-12-03 17:25:14:331
-1.0128;10.2283;-1.4845;-0.3805;9.7791;-0.6274;-0.2277;-1.0281;-0.9744;-0.9774;0.7496;-0.379;0.0;10.86;-48.48;20.46;357.12;-85.71;148.77;0.0;997.03;49.347;55.701347;13.169365;239.35;NaN;;;51.658066;;0 / 5;131048;2020-12-03 17:25:14:831
-0.0048;9.2611;1.0367;-0.5878;9.7588;0.7679;-0.1377;-0.0165;0.4532;0.0268;1.2506;0.2013;0.0;-7.98;-50.28;21.78;194.5;-84.34;37.43;0.0;997.03;54.588;55.701347;13.169365;239.35;NaN;;;51.658066;;0 / 5;131548;2020-12-03 17:25:15:331
0.6752;9.7184;-0.4382;0.5856;9.7765;-0.4973;-0.1714;-0.2138;0.1693;0.2156;0.1168;0.1072;0.0;-16.8;-45.84;27.96;20.69;-85.51;-130.34;0.0;996.98;53.61;55.701347;13.169365;239.35;NaN;;;51.658066;;0 / 5;132048;2020-12-03 17:25:15:831
0.1125;10.36;-1.3432;0.3666;9.7963;-0.2613;-0.029;0.5111;-1.1465;-0.6017;-0.2748;-0.2483;0.0;-5.34;-48.18;26.76;47.45;-87.37;-125.48;0.0;997.02;53.173;55.701347;13.169365;239.35;NaN;;;51.658066;;0 / 5;132549;2020-12-03 17:25:16:332
0.4142;10.2954;-0.8883;-0.5978;9.7821;0.3516;0.4422;-0.0613;0.2255;0.3262;0.1712;0.0388;0.0;-0.72;-47.1;18.54;229.01;-85.94;59.54;0.0;997.03;53.83;55.701347;13.169365;239.35;NaN;;;51.658066;;0 / 5;133050;2020-12-03 17:25:16:833
-0.1269;9.8644;-0.6608;0.2618;9.6483;-1.7353;-0.3887;0.2161;1.0745;0.1209;-0.4385;-0.1041;0.0;-6.3;-37.5;24.6;358.93;-80.01;-167.29;0.0;997.01;58.909;55.701347;13.169365;239.35;NaN;;;51.658066;;0 / 5;133548;2020-12-03 17:25:17:331
-1.6951;9.8788;1.4222;-0.6124;9.7728;0.5354;-0.9582;-0.5285;1.0353;0.1789;0.746;0.3113;0.0;-4.2;-45.12;5.46;186.45;-85.24;48.84;0.0;996.97;59.692;55.701347;13.169365;239.35;NaN;;;51.658066;;0 / 5;134049;2020-12-03 17:25:17:832
0.7662;10.1924;-0.7949;0.0977;9.7681;-0.8628;0.7619;0.4483;0.0296;0.4441;-0.119;0.2703;0.0;-13.38;-42.42;9.48;299.17;-84.92;-173.54;0.0;996.98;61.087;55.701347;13.169365;239.35;NaN;;;51.658066;;0 / 5;134548;2020-12-03 17:25:18:331
0.0096;7.5899;-0.3567;-0.21;9.8041;-0.0799;0.2196;-2.2142;-0.2768;-0.4643;0.4992;-0.47;0.0;-12.72;-43.08;2.28;207.6;-88.69;110.84;0.0;997.03;53.161;55.701347;13.169365;239.35;NaN;;;51.658066;;0 / 5;135048;2020-12-03 17:25:18:831
1.9944;10.4654;-0.5746;-0.5296;9.7922;-0.0421;1.4227;-0.1601;-1.4878;0.5998;0.556;0.0022;0.0;-15.6;-42.42;-0.06;151.97;-86.49;57.68;0.0;997.01;62.849;55.701347;13.169365;239.35;NaN;;;51.658066;;0 / 5;135549;2020-12-03 17:25:19:332
2.1932;7.7742;-2.6385;0.2103;9.7173;-1.3037;1.6669;0.444;-1.6317;-0.7771;-0.1367;-0.0766;0.0;-13.14;-40.5;0.42;255.43;-82.26;-170.84;0.0;997.01;53.012;55.701347;13.169365;239.35;NaN;;;51.658066;;0 / 5;136048;2020-12-03 17:25:19:831
2.3679;20.2101;2.1141;-0.4416;9.7618;0.8261;2.8096;10.4483;1.2881;0.4312;-0.0604;-0.5012;0.0;-6.78;-39.66;-4.5;117.56;-86.67;42.53;0.0;996.99;56.358;55.701347;13.169365;239.35;NaN;;;51.658066;;0 / 5;136549;2020-12-03 17:25:20:332
-0.9122;9.4741;-0.6967;0.2363;9.6485;-1.7381;-1.0934;-0.7801;0.9959;0.24;-0.6065;0.1427;0.0;-13.68;-44.04;11.46;290.81;-79.7;-172.26;0.0;996.99;61.79;55.701347;13.169365;239.35;NaN;;;51.658066;;0 / 5;137048;2020-12-03 17:25:20:831
-1.6999;8.5116;0.8045;-0.5254;9.7859;0.3605;-1.1459;-0.781;0.7313;0.2864;0.4992;0.2765;0.0;-0.06;-48.6;-7.14;82.42;-86.27;55.54;0.0;996.97;57.439;55.701347;13.169365;239.35;NaN;;;51.658066;;0 / 5;137548;2020-12-03 17:25:21:331
0.1149;9.9554;-0.5387;0.0886;9.7092;-1.3758;0.0263;0.2462;0.8371;0.5974;-0.0598;0.1653;0.0;-2.22;-42.66;31.44;359.99;-81.92;-176.31;0.0;997.0;55.955;55.701347;13.169365;239.35;NaN;;;51.658066;;0 / 5;138048;2020-12-03 17:25:21:831
0.1173;7.6042;-0.1868;-0.2045;9.8016;-0.2373;0.3218;-2.1974;0.0506;-0.5462;0.3569;-0.4676;0.0;-7.5;-47.28;20.4;296.31;-88.17;139.25;0.0;997.04;55.05;55.701347;13.169365;239.35;NaN;;;51.658066;;0 / 5;138548;2020-12-03 17:25:22:331
1.0152;8.6553;0.1844;-0.5792;9.7846;-0.3104;2.3366;0.6377;0.059;0.6389;0.5035;0.0834;0.0;-11.46;-46.92;19.26;260.0;-86.16;118.19;0.0;996.99;62.776;55.701347;13.169365;239.35;NaN;;;51.658066;;0 / 5;139048;2020-12-03 17:25:22:831
1.1301;8.4949;-2.3751;-0.051;9.746;-1.0873;2.632;0.1423;-2.7866;-1.0404;-0.4147;-0.1493;0.0;-9.48;-46.68;20.64;326.75;-83.63;177.31;0.0;997.03;54.009;55.701347;13.169365;239.35;NaN;;;51.658066;;0 / 5;139549;2020-12-03 17:25:23:332
-0.407;8.4135;-0.0694;-0.4587;9.77;0.7124;2.2616;-1.7491;-2.3597;0.8924;-0.028;-0.5293;0.0;-12.3;-49.26;11.28;168.27;-85.04;32.77;0.0;997.0;55.502;55.701347;13.169365;239.35;NaN;;;51.658066;;0 / 5;140048;2020-12-03 17:25:23:831
-1.0726;9.4478;0.0575;0.174;9.644;-1.7701;-1.3735;-0.2058;1.3056;0.3469;-0.6694;0.0327;0.0;-10.74;-42.66;22.08;329.26;-79.55;-174.39;0.0;997.0;60.769;55.701347;13.169365;239.35;NaN;;;51.658066;;0 / 5;140548;2020-12-03 17:25:24:331
-1.075;9.2706;0.7279;-0.2638;9.8031;0.0108;-1.1297;-0.6474;0.7745;0.2498;0.228;0.3351;0.0;-5.46;-46.68;14.04;243.63;-88.46;87.65;0.0;996.98;56.019;55.701347;13.169365;239.35;NaN;;;51.658066;;0 / 5;141047;2020-12-03 17:25:24:830
-0.1676;9.5292;-0.3879;0.0977;9.7525;-1.0248;-0.2653;-0.2232;0.6369;0.6456;-0.4562;0.1708;0.0;-4.8;-43.02;21.36;344.72;-85.58;-179.53;0.0;997.01;59.693;55.701347;13.169365;239.35;NaN;;;51.658066;;0 / 5;141549;2020-12-03 17:25:25:332
-0.3759;8.3417;0.3735;-0.3937;9.795;-0.2683;0.4775;-1.5635;0.0408;-0.5822;0.4259;-0.4047;0.0;-1.14;-46.14;17.22;293.99;-87.22;124.27;0.0;997.05;53.733;55.701347;13.169365;239.35;NaN;;;51.658066;;0 / 5;142048;2020-12-03 17:25:25:831
2.2099;9.7878;0.2921;-0.5124;9.7829;-0.4497;2.7223;0.0049;0.7418;0.5516;1.4014;0.0975;0.0;-20.76;-47.34;14.76;220.39;-86.42;99.03;0.0;997.02;59.369;55.701347;13.169365;239.35;NaN;;;51.658066;;0 / 5;142548;2020-12-03 17:25:26:331
0.9098;11.392;-1.4414;0.1636;9.7341;-1.1792;0.7463;1.6579;-0.2621;-0.5822;0.6818;-0.5531;0.0;-33.42;-48.48;2.58;272.88;-83.03;-172.1;0.0;997.01;51.331;55.701347;13.169365;239.35;NaN;;;51.658066;;0 / 5;143048;2020-12-03 17:25:26:831
-1.2618;9.1868;0.6848;-0.5793;9.7833;0.3487;-0.2851;-0.1008;0.1373;-0.1772;1.6085;-0.0497;0.0;-7.92;-45.24;-17.34;93.65;-86.05;58.95;0.0;997.0;56.199;55.701347;13.169365;239.35;NaN;;;51.658066;;0 / 5;143549;2020-12-03 17:25:27:332
1.3695;9.6226;0.7159;0.3472;9.798;-0.2227;1.221;-0.2807;0.7878;0.3439;1.6195;-0.1072;0.0;-8.4;-40.56;-12.6;260.21;-88.5;-127.43;0.0;996.98;51.615;55.701347;13.169365;239.35;NaN;;;51.658066;;0 / 4;144048;2020-12-03 17:25:27:831
0.1844;9.1126;-0.7111;-0.4113;9.798;0.0179;0.9212;-0.7883;-0.9924;-0.1039;1.085;-0.2269;0.0;2.34;-41.1;-12.6;86.27;-87.59;87.51;0.0;997.02;55.716;55.701347;13.169365;239.35;NaN;;;51.658066;;0 / 4;144549;2020-12-03 17:25:28:332
0.996;9.9578;-0.3184;-0.2684;9.7652;0.8592;2.6962;4.4089;0.2925;0.1435;0.2451;-0.1658;0.0;4.32;-43.44;-17.58;6.16;-84.73;17.35;0.0;997.02;55.04;55.701347;13.169365;239.35;NaN;;;51.658066;;0 / 4;145048;2020-12-03 17:25:28:831
-0.7374;9.5915;-1.1493;0.448;9.705;-1.3353;-0.8072;0.4611;0.131;0.4813;-0.6712;0.1421;0.0;3.0;-49.56;-13.98;184.33;-81.74;-161.45;0.0;996.98;52.732;55.701347;13.169365;239.35;NaN;;;51.658066;;0 / 4;145548;2020-12-03 17:25:29:331
-1.2761;9.4646;0.6872;-0.4185;9.7904;0.3785;-0.9318;-0.3929;0.2129;0.0659;0.297;0.2422;0.0;1.86;-46.14;-22.62;65.69;-86.93;65.05;0.0;997.0;56.277;55.701347;13.169365;239.35;NaN;;;51.658066;;0 / 4;146048;2020-12-03 17:25:29:831
0.1963;10.1876;-0.8404;0.1036;9.7882;-0.5924;0.0759;-0.065;-0.2551;0.083;-0.3334;0.0168;0.0;2.4;-50.28;-19.38;183.38;-86.48;-170.08;0.0;997.0;59.76;55.701347;13.169365;239.35;NaN;;;51.658066;;0 / 4;146548;2020-12-03 17:25:30:331
-2.6145;12.455;-0.6441;0.1601;9.7919;-0.513;-0.8808;0.6016;-0.5381;-1.3739;-0.061;-0.0595;0.0;-1.32;-48.36;-19.38;197.93;-86.86;-162.67;0.0;997.03;55.038;55.701347;13.169365;239.35;NaN;;;51.658066;;0 / 4;147048;2020-12-03 17:25:30:831
-0.8811;8.4997;-0.4741;-0.4966;9.7902;0.2753;-0.3845;-1.2905;-0.7494;0.4483;-0.0701;0.1243;0.0;1.38;-48.36;-22.62;64.82;-86.68;60.99;0.0;996.99;57.721;55.701347;13.169365;239.35;NaN;;;51.658066;;0 / 4;147549;2020-12-03 17:25:31:332
-0.6105;10.9921;-1.1636;0.1923;9.6425;-1.7762;0.2913;0.0184;1.7595;0.2706;-0.3707;0.0303;0.0;-0.54;-54.48;-14.7;186.1;-79.5;-173.82;0.0;997.01;52.602;55.701347;13.169365;239.35;NaN;;;51.658066;;0 / 4;148048;2020-12-03 17:25:31:831
-1.2953;9.352;1.269;-0.5845;9.7803;0.4181;-0.9;-0.7107;0.7096;0.2632;0.4754;0.2838;0.0;1.98;-48.96;-25.68;56.72;-85.8;54.42;0.0;996.98;57.195;55.701347;13.169365;239.35;NaN;;;51.658066;;0 / 4;148548;2020-12-03 17:25:32:331
-0.1604;9.7303;-0.0694;0.17;9.751;-1.0291;-0.1604;-0.2218;1.0411;0.5955;0.0887;0.1738;0.0;-0.6;-50.34;-19.2;183.2;-85.64;-179.18;0.0;997.01;61.002;55.701347;13.169365;239.35;NaN;;;51.658066;;0 / 4;149049;2020-12-03 17:25:32:832
-0.0623;8.1597;-0.5076;-0.1214;9.8037;-0.2054;-0.3383;-1.5459;-1.0252;-0.1577;0.1168;-0.4358;0.0;-2.22;-47.82;-24.54;155.11;-88.61;149.42;0.0;997.04;52.862;55.701347;13.169365;239.35;NaN;;;51.658066;;0 / 4;149548;2020-12-03 17:25:33:331
1.1923;9.9386;-1.8939;-0.5346;9.7916;0.0979;0.8626;-0.9758;-1.9606;0.5003;0.3013;0.092;0.0;-2.58;-44.52;-19.98;95.22;-86.82;79.63;0.0;996.99;62.157;55.701347;13.169365;239.35;NaN;;;51.658066;;0 / 4;150049;2020-12-03 17:25:33:832
1.1564;9.6226;-2.4709;0.1049;9.7215;-1.2853;-0.1576;1.0911;-1.3987;-0.6787;0.1003;-0.0778;0.0;-5.82;-45.72;-7.5;207.69;-82.44;-175.33;0.0;997.02;52.277;55.701347;13.169365;239.35;NaN;;;51.658066;;0 / 4;150548;2020-12-03 17:25:34:331
-1.1732;9.8596;1.2187;-0.4068;9.7894;0.4142;-0.6084;0.142;0.6441;-0.1149;0.3556;0.1463;0.0;-1.02;-42.12;-13.26;58.27;-86.61;44.48;0.0;997.0;56.672;55.701347;13.169365;239.35;NaN;;;51.658066;;0 / 4;151048;2020-12-03 17:25:34:831
0.5842;9.7303;-0.3232;0.1078;9.7588;-0.9608;0.0023;-0.2248;1.1356;0.4483;-0.0048;0.1274;0.0;-1.26;-46.26;-7.98;188.69;-84.34;-173.6;0.0;997.0;53.76;55.701347;13.169365;239.35;NaN;;;51.658066;;0 / 4;151548;2020-12-03 17:25:35:331
-0.2658;8.2291;-0.3759;-0.2587;9.8025;-0.1158;0.4287;-1.2981;0.0799;-0.5058;0.4803;-0.3552;0.0;1.32;-44.94;-10.62;193.08;-88.86;-160.68;0.0;997.06;52.452;55.701347;13.169365;239.35;NaN;;;51.658066;;0 / 4;152048;2020-12-03 17:25:35:831
1.7837;10.305;-0.9314;-0.3366;9.7983;0.223;1.4547;0.6982;-2.318;0.4807;0.0435;-0.0693;0.0;3.84;-43.68;-10.56;42.53;-87.64;56.48;0.0;997.0;60.696;55.701347;13.169365;239.35;NaN;;;51.658066;;0 / 4;152548;2020-12-03 17:25:36:331
-1.087;11.9211;-3.6273;0.1853;9.6388;-1.7971;-1.8661;0.2855;0.6814;-0.1179;-0.5588;0.0364;0.0;-0.84;-44.64;-1.86;186.75;-79.38;-174.11;0.0;997.05;56.0;55.701347;13.169365;239.35;NaN;;;51.658066;;0 / 4;153049;2020-12-03 17:25:36:832
-1.1014;9.7926;1.6568;-0.4118;9.7921;0.3385;0.1581;-0.0091;1.0047;-0.2774;0.3734;0.1439;0.0;0.84;-42.0;-12.66;54.42;-86.88;50.58;0.0;996.98;58.315;55.701347;13.169365;239.35;NaN;;;51.658066;;0 / 4;153548;2020-12-03 17:25:37:331
0.2083;9.3065;-0.5028;0.1768;9.7407;-1.1218;0.0315;-0.4341;0.619;0.5198;-0.6053;0.2093;0.0;-2.04;-45.9;-11.52;192.89;-83.35;-171.05;0.0;997.0;53.103;55.701347;13.169365;239.35;NaN;;;51.658066;;0 / 4;154048;2020-12-03 17:25:37:831
-0.2227;9.3425;0.0144;-0.2519;9.7985;-0.3102;0.1609;-1.4377;-0.4943;-0.2102;0.1547;-0.3735;0.0;-10.5;-45.3;-17.16;172.11;-87.66;140.92;0.0;997.06;54.45;55.701347;13.169365;239.35;NaN;;;51.658066;;0 / 4;154549;2020-12-03 17:25:38:332
2.0112;10.3744;-1.6544;-0.3962;9.7961;-0.223;2.4074;0.5783;-1.4314;0.6609;0.5401;0.0938;0.0;-12.78;-47.76;-26.04;101.7;-87.1;70.45;0.0;997.01;61.244;55.701347;13.169365;239.35;NaN;;;51.658066;;0 / 4;155049;2020-12-03 17:25:38:832
2.0543;9.5532;-1.1181;0.0521;9.682;-1.5578;1.3892;0.4506;-0.044;-0.3244;0.3343;-0.197;0.0;-17.1;-57.84;-22.08;210.27;-80.85;-178.08;0.0;997.04;50.773;55.701347;13.169365;239.35;NaN;;;51.658066;;0 / 4;155548;2020-12-03 17:25:39:331
-0.9122;9.3089;1.1971;-0.6265;9.7865;0.0539;-0.8795;-0.6307;1.0738;-0.1619;2.1705;-0.0094;0.0;13.8;-59.4;-37.74;69.94;-86.32;85.08;0.0;997.02;56.978;55.701347;13.169365;239.35;NaN;;;51.658066;;0 / 4;156048;2020-12-03 17:25:39:831
1.7861;9.601;0.5746;0.7794;9.7732;-0.2186;1.0067;-0.1721;0.7932;0.3188;1.6629;-0.0345;0.0;25.74;-55.38;8.22;151.69;-85.27;-105.67;0.0;996.99;56.395;55.701347;13.169365;239.35;NaN;;;51.658066;;0 / 4;156549;2020-12-03 17:25:40:332
0.419;9.285;-1.5156;0.1341;9.793;-0.5002;0.2849;-0.508;-1.0154;-0.1864;1.5389;-0.6869;0.0;8.34;-44.88;28.68;32.93;-86.97;-164.99;0.0;997.01;50.142;55.701347;13.169365;239.35;NaN;;;51.658066;;0 / 4;157049;2020-12-03 17:25:40:832
-1.846;9.3137;1.9968;-0.8148;9.7524;0.6298;-0.3081;-0.1562;0.7852;-0.1448;0.6128;0.1757;0.0;-1.98;-45.48;19.74;218.34;-83.97;52.3;0.0;997.0;55.696;55.701347;13.169365;239.35;NaN;;;51.658066;;0 / 4;157549;2020-12-03 17:25:41:332
0.5818;9.6705;-0.431;0.0156;9.7683;-0.8662;0.9302;0.0051;0.3036;0.4746;-0.2406;0.1305;0.0;-9.9;-40.62;19.38;323.95;-86.18;176.07;0.0;997.0;62.538;55.701347;13.169365;239.35;NaN;;;51.658066;;0 / 4;158048;2020-12-03 17:25:41:831
0.4262;7.9011;0.2945;-0.1291;9.8057;-0.052;0.1938;-2.1943;-0.6567;-0.3672;0.4057;-0.4664;0.0;-8.88;-42.66;11.94;252.84;-89.19;111.93;0.0;997.04;56.231;55.701347;13.169365;239.35;NaN;;;51.658066;;0 / 4;158548;2020-12-03 17:25:42:331
1.1876;9.3185;-1.8867;-0.4381;9.7952;0.1808;0.4573;-1.159;-1.8113;0.5112;0.1791;0.0113;0.0;-10.86;-43.5;6.36;185.31;-87.23;67.57;0.0;996.98;56.233;55.701347;13.169365;239.35;NaN;;;51.658066;;0 / 4;159048;2020-12-03 17:25:42:831
2.7199;8.2411;-3.103;0.1053;9.7443;-1.0989;2.3704;-0.1983;-1.7646;-0.8705;-0.3053;-0.3075;0.0;-12.84;-40.98;9.42;287.18;-80.98;-174.19;0.0;997.02;53.438;55.701347;13.169365;239.35;NaN;;;51.658066;;0 / 4;159548;2020-12-03 17:25:43:331
-2.0639;13.1518;-0.6201;-0.3361;9.7879;0.5049;-1.7277;3.3639;-1.125;-0.5517;0.3459;0.1146;0.0;-12.72;-42.12;-0.96;128.22;-86.45;33.66;0.0;996.98;60.268;55.701347;13.169365;239.35;NaN;;;51.658066;;0 / 4;160048;2020-12-03 17:25:43:831
-0.8141;9.3712;-0.7973;0.3168;9.6562;-1.6813;-0.7286;-0.6969;1.3748;0.5277;-0.6773;0.1696;0.0;-10.8;-40.62;6.6;279.7;-79.95;-169.33;0.0;996.96;53.92;55.701347;13.169365;239.35;NaN;;;51.658066;;0 / 4;160548;2020-12-03 17:25:44:331
-1.9322;8.9043;1.1636;-0.4088;9.7933;0.3081;-1.5234;-0.889;0.8555;0.2437;0.523;0.2771;0.0;-4.62;-43.2;-1.68;143.18;-87.24;61.7;0.0;996.99;56.108;55.701347;13.169365;239.35;NaN;;;51.658066;;0 / 4;161049;2020-12-03 17:25:44:832
-0.2227;10.2355;-0.7781;0.1241;9.752;-1.0265;0.1775;0.316;0.3705;0.4935;-0.6779;0.2209;0.0;-6.54;-45.12;5.22;279.19;-83.95;-173.1;0.0;996.98;62.285;55.701347;13.169365;239.35;NaN;;;51.658066;;0 / 4;161548;2020-12-03 17:25:45:331
-2.1572;9.3951;-0.0599;0.1785;9.7982;-0.3648;-2.2879;0.6264;-0.047;-0.9591;0.198;-0.0131;0.0;-2.94;-44.94;2.7;327.34;-87.63;-153.92;0.0;997.03;56.799;55.701347;13.169365;239.35;NaN;;;51.658066;;0 / 4;162048;2020-12-03 17:25:45:831
0.8763;9.8261;-0.8021;-0.6103;9.7821;-0.3281;1.4866;0.044;-0.4739;0.5253;0.399;-0.0455;0.0;2.82;-46.74;20.52;298.41;-85.95;118.27;0.0;996.97;57.534;55.701347;13.169365;239.35;NaN;;;51.658066;;0 / 4;162548;2020-12-03 17:25:46:331
3.2203;8.6984;-3.862;-0.0129;9.7347;-1.1857;3.2332;-1.0363;-2.6762;-1.1369;-0.3939;-0.3399;0.0;-4.38;-44.46;25.86;348.17;-83.05;179.38;0.0;997.02;55.23;55.701347;13.169365;239.35;NaN;;;51.658066;;0 / 4;163048;2020-12-03 17:25:46:831
2.5978;7.9705;-2.9809;-0.2876;9.7899;0.4948;2.7489;9.3834;-1.419;-0.708;-0.2858;0.1677;0.0;-13.08;-47.88;14.94;170.56;-86.65;30.17;0.0;997.0;59.317;55.701347;13.169365;239.35;NaN;;;51.658066;;0 / 4;163548;2020-12-03 17:25:47:331
-1.2259;9.8189;-0.5004;0.278;9.608;-1.9441;-2.1934;0.5629;0.5985;-0.0349;-0.466;-0.0497;0.0;-14.1;-42.6;26.34;335.78;-77.82;-168.17;0.0;996.99;53.97;55.701347;13.169365;239.35;NaN;;;51.658066;;0 / 4;164049;2020-12-03 17:25:47:832
-0.7901;9.9602;1.0846;-0.3631;9.7998;0.0535;-0.7718;-0.4118;1.0503;0.3555;0.4949;0.4163;0.0;-11.76;-49.2;14.1;217.57;-87.86;81.62;0.0;996.98;56.157;55.701347;13.169365;239.35;NaN;;;51.658066;;0 / 4;164548;2020-12-03 17:25:48:331
0.3639;9.4694;-0.3735;0.0058;9.748;-1.0708;0.3342;-0.1062;0.5082;0.6603;-0.2332;0.2868;0.0;-9.84;-45.12;17.7;322.77;-83.73;-179.69;0.0;996.98;62.718;55.701347;13.169365;239.35;NaN;;;51.658066;;0 / 4;165048;2020-12-03 17:25:48:831
-0.5579;9.285;0.3472;-0.3541;9.7995;-0.123;-0.2037;-0.5145;0.4701;-0.5071;-0.2296;-0.277;0.0;-2.58;-46.02;15.48;271.23;-87.81;109.15;0.0;997.02;52.347;55.701347;13.169365;239.35;NaN;;;51.658066;;0 / 4;165549;2020-12-03 17:25:49:332
1.0487;9.9219;-0.0551;-0.4444;9.7936;-0.2423;1.4931;0.1283;0.1872;0.7422;0.082;0.1897;0.0;-1.56;-45.54;17.4;284.14;-87.04;118.6;0.0;996.99;60.421;55.701347;13.169365;239.35;NaN;;;51.658066;;0 / 4;166049;2020-12-03 17:25:49:832
0.4166;10.9035;-2.842;0.0215;9.6545;-1.7206;-0.3638;0.787;-0.372;-0.063;0.0398;-0.1695;0.0;-6.54;-38.46;28.2;342.41;-79.89;-179.29;0.0;997.01;52.115;55.701347;13.169365;239.35;NaN;;;51.658066;;0 / 4;166548;2020-12-03 17:25:50:331
-1.2642;9.4358;1.3145;-0.6522;9.7757;0.4257;-0.7604;-0.8402;0.8409;-0.344;1.1699;0.1408;0.0;-18.3;-48.12;10.92;184.45;-85.47;63.81;0.0;996.97;56.147;55.701347;13.169365;239.35;NaN;;;51.658066;;0 / 4;167048;2020-12-03 17:25:50:831
1.4533;9.3927;0.0192;0.2447;9.7706;-0.8028;0.9955;-0.2941;0.9225;0.3671;1.4234;-0.0308;0.0;-23.04;-52.68;-17.52;241.16;-85.09;-163.05;0.0;996.97;62.138;55.701347;13.169365;239.35;NaN;;;51.658066;;0 / 4;167548;2020-12-03 17:25:51:331
-1.1325;9.0743;0.0335;-0.5512;9.7823;0.4167;-0.5502;0.2378;-0.5819;-0.3317;1.87;-0.2385;0.0;-6.06;-45.06;-14.28;88.15;-85.96;52.91;0.0;997.02;50.929;55.701347;13.169365;239.35;NaN;;;51.658066;;0 / 4;168048;2020-12-03 17:25:51:831
-0.9386;8.8828;-0.4262;-0.5727;9.7652;0.695;-0.3659;-0.8824;-1.1212;0.3408;1.6702;0.4115;0.0;-7.68;-38.1;-16.38;77.11;-84.73;39.49;0.0;997.03;48.033;55.701347;13.169365;239.35;NaN;;;51.658066;;0 / 4;168548;2020-12-03 17:25:52:331
0.9601;10.2212;-0.2107;0.229;9.754;-0.9886;0.7311;0.4672;0.7779;0.3836;0.3288;0.0107;0.0;-4.5;-41.16;-11.58;203.8;-84.06;-166.96;0.0;997.0;54.538;55.701347;13.169365;239.35;NaN;;;51.658066;;0 / 4;169048;2020-12-03 17:25:52:831
-0.9984;9.4622;0.6249;-0.5577;9.7866;0.2841;-0.1582;-0.1593;-0.1309;-0.614;0.4063;-0.2446;0.0;6.36;-44.52;-21.9;53.63;-86.34;63.0;0.0;997.02;54.113;55.701347;13.169365;239.35;NaN;;;51.658066;;0 / 4;169548;2020-12-03 17:25:53:331
1.2378;10.2068;-0.7805;0.1016;9.7825;-0.6795;1.1362;0.4243;-0.101;0.3683;-0.4189;0.0914;0.0;8.1;-49.02;-16.62;153.96;-86.86;175.6;0.0;997.04;62.56;55.701347;13.169365;239.35;NaN;;;51.658066;;0 / 4;170048;2020-12-03 17:25:53:831
-0.0551;10.961;-1.9561;0.1716;9.7522;-1.0172;-0.2267;1.2088;-0.9389;-1.6023;0.2463;0.2166;0.0;3.72;-51.3;-17.22;177.18;-83.96;-170.42;0.0;997.06;55.203;55.701347;13.169365;239.35;NaN;;;51.658066;;0 / 4;170548;2020-12-03 17:25:54:331
-0.3663;9.5101;-0.4597;-0.6416;9.7652;0.6321;2.0854;-1.3038;-1.5755;0.6145;0.3764;-0.4871;0.0;4.32;-49.38;-25.02;43.5;-84.73;45.43;0.0;997.0;61.353;55.701347;13.169365;239.35;NaN;;;51.658066;;0 / 4;171048;2020-12-03 17:25:54:831
-0.5914;10.0488;-0.5267;0.0064;9.6369;-1.8165;-1.838;0.6872;0.5236;-0.0098;-0.2015;0.0529;0.0;2.76;-53.7;-13.32;172.61;-79.33;-179.8;0.0;997.02;61.898;55.701347;13.169365;239.35;NaN;;;51.658066;;0 / 4;171549;2020-12-03 17:25:55:332
-1.1181;9.5029;0.8045;-0.3978;9.7973;0.1557;-1.0962;-0.7829;0.6919;0.3011;0.3666;0.3821;0.0;4.62;-51.18;-26.76;62.27;-87.5;68.63;0.0;997.0;58.237;55.701347;13.169365;239.35;NaN;;;51.658066;;0 / 4;172048;2020-12-03 17:25:55:831
-0.522;9.7232;-0.4477;0.0726;9.7526;-1.0255;0.4278;0.2651;0.4605;0.5601;-0.4434;0.2984;0.0;0.9;-54.36;-21.18;181.05;-83.98;-175.95;0.0;997.0;57.775;55.701347;13.169365;239.35;NaN;;;51.658066;;0 / 4;172548;2020-12-03 17:25:56:331
-1.2857;8.1046;-1.4126;-0.4048;9.7964;-0.1906;-0.5003;-2.0629;-0.0368;-0.4936;0.5884;-0.4981;0.0;-1.8;-50.34;-27.12;123.46;-87.38;115.22;0.0;997.04;56.875;55.701347;13.169365;239.35;NaN;;;51.658066;;0 / 4;173049;2020-12-03 17:25:56:832
1.7287;9.3042;-0.0742;-0.3887;9.7889;-0.4422;1.866;-0.061;-0.6951;0.8191;0.8969;0.285;0.0;0.9;-48.9;-24.72;90.93;-87.3;87.91;0.0;996.99;56.669;55.701347;13.169365;239.35;NaN;;;51.658066;;0 / 4;173548;2020-12-03 17:25:57:331
2.4422;7.5276;-2.66;0.1795;9.7025;-1.4141;1.3433;-0.1158;-0.9227;-0.8644;0.0588;-0.3143;0.0;-3.78;-47.88;-15.6;195.09;-81.64;-172.77;0.0;997.05;53.317;55.701347;13.169365;239.35;NaN;;;51.658066;;0 / 4;174048;2020-12-03 17:25:57:831
4.2522;19.9539;1.9609;-0.3993;9.7696;0.7514;4.6515;10.1842;1.2095;0.5516;0.333;-0.5226;0.0;-0.42;-45.06;-20.16;40.29;-86.62;35.32;0.0;997.02;53.212;55.701347;13.169365;239.35;NaN;;;51.658066;;0 / 4;174548;2020-12-03 17:25:58:331
-0.1317;9.0767;-0.7446;0.4228;9.6479;-1.7054;-0.679;-0.509;0.6208;0.2761;-0.4599;0.0645;0.0;-1.92;-46.92;-6.78;195.54;-80.87;-164.64;0.0;997.0;63.646;55.701347;13.169365;239.35;NaN;;;51.658066;;0 / 4;175048;2020-12-03 17:25:58:831
-1.2977;8.9666;1.3983;-0.4461;9.7898;0.3629;-1.1294;-0.907;1.0736;0.1594;0.655;0.3204;0.0;2.04;-45.12;-14.88;51.13;-86.64;50.87;0.0;997.0;57.328;55.701347;13.169365;239.35;NaN;;;51.658066;;0 / 4;175548;2020-12-03 17:25:59:331
0.2729;10.2092;-0.6848;0.1019;9.7653;-0.8938;0.3698;0.1135;0.2378;0.3976;-0.2962;0.2386;0.0;1.56;-45.12;-6.78;173.95;-84.74;-173.5;0.0;997.01;61.587;55.701347;13.169365;239.35;NaN;;;51.658066;;0 / 4;176048;2020-12-03 17:25:59:831
-0.1652;8.344;0.3041;-0.3075;9.8012;-0.1103;0.0034;-1.8618;-0.5194;-0.4643;0.176;-0.4236;0.0;4.62;-45.0;-12.6;94.85;-88.09;109.73;0.0;997.05;56.835;55.701347;13.169365;239.35;NaN;;;51.658066;;0 / 4;176548;2020-12-03 17:26:00:331
1.7813;8.0184;-0.2227;-0.392;9.7929;-0.3402;2.1733;0.0859;0.2636;0.7055;0.2536;0.2459;0.0;3.66;-45.0;-12.0;121.71;-86.97;130.96;0.0;996.99;57.439;55.701347;13.169365;239.35;NaN;;;51.658066;;0 / 4;177048;2020-12-03 17:26:00:831
0.9074;7.676;-2.5236;0.0953;9.7322;-1.2025;2.8951;-1.2828;-1.934;-0.8418;-0.6077;-0.1127;0.0;-0.12;-45.78;-10.32;182.91;-82.93;-175.47;0.0;997.05;51.879;55.701347;13.169365;239.35;NaN;;;51.658066;;0 / 4;177548;2020-12-03 17:26:01:331
2.8659;19.0393;1.6688;-0.4334;9.7835;0.5151;2.538;1.3427;-2.1073;0.3677;0.0129;-0.412;0.0;-6.24;-43.74;-18.48;85.11;-87.58;61.08;0.0;997.02;59.899;55.701347;13.169365;239.35;NaN;;;51.658066;;0 / 4;178048;2020-12-03 17:26:01:831
-0.6752;9.7639;-0.8212;0.2493;9.6622;-1.6581;-0.6228;0.0633;0.9542;0.4447;-0.5692;0.0517;0.0;-12.72;-52.5;-17.28;213.15;-80.16;-171.45;0.0;997.0;60.603;55.701347;13.169365;239.35;NaN;;;51.658066;;0 / 4;178549;2020-12-03 17:26:02:332
-1.0104;9.3568;0.4669;-0.3877;9.7989;-0.0296;-0.0457;-0.1763;0.2786;-0.4979;0.0368;-0.0766;0.0;-15.06;-51.66;-28.8;124.67;-87.73;94.36;0.0;997.0;57.657;55.701347;13.169365;239.35;NaN;;;51.658066;;0 / 4;179048;2020-12-03 17:26:02:831
0.2251;9.8907;-0.5698;0.2305;9.7869;-0.5781;-0.0054;0.1039;0.0083;0.0354;-1.4513;0.0724;0.0;-26.7;-62.22;-31.14;228.25;-87.06;-169.53;0.0;997.01;58.353;55.701347;13.169365;239.35;NaN;;;51.658066;;0 / 4;179548;2020-12-03 17:26:03:331
-0.8787;9.9003;-1.3145;0.3849;9.7478;-1.0011;-1.6251;1.0336;-1.1154;-0.5749;-0.3835;0.329;0.0;-36.48;-56.52;-15.9;258.18;-83.72;-158.97;0.0;997.02;47.573;55.701347;13.169365;239.35;NaN;;;51.658066;;0 / 5;180049;2020-12-03 17:26:03:832
-1.3623;9.9817;0.3903;-0.7052;9.7806;-0.1105;-0.9277;-0.7973;0.8431;0.2327;-0.0579;0.2148;0.0;-36.12;-58.26;-26.52;154.31;-85.83;98.9;0.0;997.03;56.419;55.701347;13.169365;239.35;NaN;;;51.658066;;0 / 5;180549;2020-12-03 17:26:04:332
0.7039;9.6322;-0.7087;0.0048;9.727;-1.2475;0.6991;-0.0948;0.5387;0.5558;-0.1343;0.0333;0.0;-24.12;-50.46;-24.36;218.7;-82.69;-179.78;0.0;996.98;59.174;55.701347;13.169365;239.35;NaN;;;51.658066;;0 / 5;181049;2020-12-03 17:26:04:832
-0.407;9.2347;-0.103;-0.7231;9.7712;-0.4126;0.3161;-0.5365;0.3096;-0.7868;1.6354;-0.3277;0.0;-15.48;-45.42;-19.26;160.9;-85.13;119.71;0.0;997.04;52.003;55.701347;13.169365;239.35;NaN;;;51.658066;;0 / 5;181549;2020-12-03 17:26:05:332
0.5627;8.2842;0.7518;-0.2785;9.7926;-0.4448;1.3176;0.8141;0.2676;0.4599;2.1736;0.139;0.0;4.02;-48.24;-21.18;141.42;-86.93;147.95;0.0;997.01;54.321;55.701347;13.169365;239.35;NaN;;;51.658066;;0 / 5;182048;2020-12-03 17:26:05:831
1.8412;9.6609;0.4789;0.8064;9.768;-0.3258;0.8289;-0.0592;0.7304;0.3579;1.1968;-0.1762;0.0;7.08;-47.28;-5.28;190.71;-85.28;-110.08;0.0;997.01;49.374;55.701347;13.169365;239.35;NaN;;;51.658066;;0 / 5;182548;2020-12-03 17:26:06:331
-0.9338;9.4694;0.5914;-0.6521;9.7747;0.4472;0.3744;-0.3436;0.3046;-0.6231;1.2622;-0.1395;0.0;16.14;-50.28;0.9;310.92;-85.38;55.56;0.0;997.01;50.647;55.701347;13.169365;239.35;NaN;;;51.658066;;0 / 5;183048;2020-12-03 17:26:06:831
1.3863;9.6896;-0.0168;-0.7026;9.7814;-0.0331;2.4672;-0.0367;-0.3763;0.5235;0.6189;-0.0522;0.0;10.38;-50.82;11.22;302.97;-85.89;92.7;0.0;997.02;60.725;55.701347;13.169365;239.35;NaN;;;51.658066;;0 / 5;183548;2020-12-03 17:26:07:331
1.1038;8.4111;-1.767;-0.5686;9.7433;-0.9569;1.4952;0.691;-0.3743;-0.4411;0.8236;-0.5959;0.0;8.46;-44.28;26.4;2.97;-82.84;165.24;0.0;997.02;53.707;55.701347;13.169365;239.35;NaN;;;51.658066;;0 / 5;184049;2020-12-03 17:26:07:832
-0.984;9.7399;1.755;-1.1936;9.672;1.0946;0.2095;0.0679;0.6604;-0.0746;1.2353;0.194;0.0;-6.96;-51.6;21.54;202.06;-80.49;47.48;0.0;997.04;56.644;55.701347;13.169365;239.35;NaN;;;51.658066;;0 / 5;184549;2020-12-03 17:26:08:332
2.0256;9.4909;-0.261;-0.1138;9.806;-4.0E-4;2.149;-0.2935;-1.156;0.3121;-0.2057;0.0645;0.0;-16.92;-45.54;23.76;234.05;-89.33;90.2;0.0;996.98;52.879;55.701347;13.169365;239.35;NaN;;;51.658066;;0 / 5;185048;2020-12-03 17:26:08:831
2.0351;10.7742;-2.3823;0.4578;9.7492;-0.9559;1.97;-0.3852;-1.527;-0.8064;-0.7665;-0.2116;0.0;-2.46;-42.3;28.98;23.3;-81.6;-157.77;0.0;997.03;52.24;55.701347;13.169365;239.35;NaN;;;51.658066;;0 / 5;185549;2020-12-03 17:26:09:332
-2.83;11.9187;0.1532;-0.4469;9.7885;0.3939;-2.0455;-0.7525;1.1695;-0.4393;0.3306;0.0223;0.0;-3.0;-44.04;15.66;212.91;-86.52;48.6;0.0;997.01;56.658;55.701347;13.169365;239.35;NaN;;;51.658066;;0 / 5;186048;2020-12-03 17:26:09:831
0.0335;10.3121;-0.3951;0.2575;9.691;-1.4794;0.571;0.2572;0.7755;0.5558;-0.342;0.1097;0.0;-6.9;-41.46;16.44;338.39;-81.19;-170.13;0.0;996.98;62.98;55.701347;13.169365;239.35;NaN;;;51.658066;;0 / 5;186549;2020-12-03 17:26:10:332
-1.3863;9.5747;0.5627;-0.4967;9.7915;0.2232;-0.406;-0.1115;0.0522;-0.3721;0.4302;0.015;0.0;-4.68;-45.18;3.9;224.25;-87.56;107.61;0.0;997.01;59.835;55.701347;13.169365;239.35;NaN;;;51.658066;;0 / 5;187048;2020-12-03 17:26:10:831
0.158;8.4015;-0.3903;-0.0742;9.7875;-0.6083;0.2322;-1.386;0.218;0.3585;0.2017;0.1897;0.0;-9.84;-45.0;2.28;258.67;-86.42;173.05;0.0;996.99;60.805;55.701347;13.169365;239.35;NaN;;;51.658066;;0 / 5;187548;2020-12-03 17:26:11:331
-2.3177;9.3688;0.0383;0.2261;9.791;-0.5045;-2.5749;1.1053;-0.3622;-0.9945;0.0056;-0.0852;0.0;-12.24;-41.4;3.54;303.79;-86.77;-155.86;0.0;997.04;55.231;55.701347;13.169365;239.35;NaN;;;51.658066;;0 / 5;188048;2020-12-03 17:26:11:831
-0.5339;8.3393;-1.3312;-0.2779;9.8025;0.0637;0.7352;-1.1041;-2.0772;0.5021;0.2274;0.0388;0.0;-10.2;-41.88;-3.18;124.14;-86.64;39.63;0.0;997.0;57.006;55.701347;13.169365;239.35;NaN;;;51.658066;;0 / 5;188548;2020-12-03 17:26:12:331
2.3512;10.1637;-2.4757;0.1595;9.6755;-1.5905;0.5803;1.6039;-0.9905;-0.7948;-0.221;-0.0375;0.0;-7.98;-40.5;7.26;278.92;-80.62;-174.27;0.0;997.02;53.216;55.701347;13.169365;239.35;NaN;;;51.658066;;0 / 5;189049;2020-12-03 17:26:12:832
-2.2793;9.4909;1.2043;-0.351;9.7972;0.25;-1.2532;-0.5313;0.9926;-0.3879;0.4247;0.0889;0.0;-3.72;-45.9;-1.02;146.27;-87.48;54.54;0.0;996.99;57.328;55.701347;13.169365;239.35;NaN;;;51.658066;;0 / 5;189548;2020-12-03 17:26:13:331
-0.3759;9.0935;-0.6034;0.2039;9.6512;-1.727;-0.5798;-0.5577;1.1236;0.3414;-0.3951;0.0773;0.0;-6.48;-43.26;7.98;280.01;-79.79;-173.27;0.0;996.99;60.973;55.701347;13.169365;239.35;NaN;;;51.658066;;0 / 5;190049;2020-12-03 17:26:13:832
-1.6449;9.0384;0.6991;-0.3921;9.7969;0.1906;-1.1881;-0.6293;0.5995;-0.3916;-0.0494;0.0914;0.0;5.52;-47.16;8.58;266.64;-87.45;64.08;0.0;997.0;58.206;55.701347;13.169365;239.35;NaN;;;51.658066;;0 / 5;190548;2020-12-03 17:26:14:331
0.9146;9.6465;-0.7087;-0.1258;9.7875;-0.5992;0.4993;-0.8449;-0.0975;0.2736;-0.1343;0.1744;0.0;-5.16;-46.5;17.64;327.87;-86.42;168.14;0.0;997.0;58.895;55.701347;13.169365;239.35;NaN;;;51.658066;;0 / 5;191048;2020-12-03 17:26:14:831
-1.6401;10.2427;-1.099;0.1584;9.7908;-0.5331;-2.7394;0.6147;-0.3312;-0.8944;0.0728;-0.0699;0.0;-6.36;-46.38;23.16;346.1;-84.51;-176.67;0.0;997.03;54.407;55.701347;13.169365;239.35;NaN;;;51.658066;;0 / 5;191548;2020-12-03 17:26:15:331
-1.245;8.9666;-0.3567;-0.6366;9.7725;0.5135;0.6893;-0.8658;-0.626;0.551;0.297;-0.1994;0.0;-9.42;-48.54;15.54;197.89;-85.22;51.11;0.0;996.99;56.37;55.701347;13.169365;239.35;NaN;;;51.658066;;0 / 5;192048;2020-12-03 17:26:15:831
-0.2203;10.3385;0.1317;0.1409;9.6565;-1.7037;-0.5239;0.6437;0.8585;0.3097;-0.5448;0.0828;0.0;-9.66;-46.44;22.98;332.29;-79.96;-175.27;0.0;996.99;53.493;55.701347;13.169365;239.35;NaN;;;51.658066;;0 / 5;192548;2020-12-03 17:26:16:331
-0.735;9.4861;0.8715;-0.448;9.7959;0.1037;-0.2871;-0.3097;0.7678;0.3029;0.4766;0.2551;0.0;-10.02;-48.54;13.14;214.84;-87.31;76.97;0.0;996.97;54.732;55.701347;13.169365;239.35;NaN;;;51.658066;;0 / 5;193049;2020-12-03 17:26:16:832
1.1636;9.9075;-0.3089;0.0376;9.7885;-0.5947;1.126;0.119;0.2859;0.3671;0.0783;0.3119;0.0;-10.5;-45.72;15.24;324.74;-86.52;-176.38;0.0;996.99;61.648;55.701347;13.169365;239.35;NaN;;;51.658066;;0 / 5;193548;2020-12-03 17:26:17:331
0.9673;7.9753;-0.4717;0.189;9.8044;-0.0916;-2.0326;0.4646;-0.5477;-0.0856;-0.8435;-0.2733;0.0;-6.54;-45.3;15.0;41.33;-88.77;-115.87;0.0;997.04;56.905;55.701347;13.169365;239.35;NaN;;;51.658066;;0 / 5;194048;2020-12-03 17:26:17:831
1.3169;9.6753;-2.1429;-0.1615;9.805;0.083;1.8375;0.4521;-1.5148;0.4856;-0.5692;-0.1194;0.0;-2.58;-45.36;16.8;204.26;-88.24;36.13;0.0;997.01;58.184;55.701347;13.169365;239.35;NaN;;;51.658066;;0 / 5;194548;2020-12-03 17:26:18:331
-1.7909;10.7503;-1.7574;-0.0853;9.6786;-1.5771;-0.9754;0.1786;0.7439;0.2461;-0.7451;-0.0436;0.0;3.66;-41.16;24.12;8.89;-80.73;176.91;0.0;997.01;49.93;55.701347;13.169365;239.35;NaN;;;51.658066;;0 / 5;195048;2020-12-03 17:26:18:831
-0.9673;9.4023;1.7646;-0.8237;9.7689;0.2458;0.0743;0.1338;1.2051;0.1014;1.7643;0.2404;0.0;-6.0;-48.72;17.04;224.43;-84.97;73.38;0.0;996.98;54.87;55.701347;13.169365;239.35;NaN;;;51.658066;;0 / 5;195548;2020-12-03 17:26:19:331
1.5443;9.3903;0.7159;0.451;9.7822;-0.524;1.0934;-0.3919;1.2399;0.5051;1.727;0.1897;0.0;-41.82;-51.48;5.04;313.92;-85.96;-139.29;0.0;996.98;61.7;55.701347;13.169365;239.35;NaN;;;51.658066;;0 / 5;196048;2020-12-03 17:26:19:831
-0.9409;12.2778;-0.5507;-0.2399;9.8029;0.1264;-0.385;1.6034;-1.3667;-1.3916;1.0667;-0.354;0.0;-9.18;-53.7;-30.0;81.62;-88.42;62.21;0.0;997.04;50.878;55.701347;13.169365;239.35;NaN;;;51.658066;;0 / 5;196548;2020-12-03 17:26:20:331
0.85;9.6633;0.0503;-0.7262;9.7345;0.9392;1.4517;4.8035;0.0855;-0.0288;1.2573;-0.043;0.0;-4.8;-43.02;-18.12;68.51;-83.05;37.71;0.0;997.03;51.623;55.701347;13.169365;239.35;NaN;;;51.658066;;0 / 5;197048;2020-12-03 17:26:20:831
1.4007;10.3145;-0.0814;0.3301;9.7855;-0.552;1.0968;-0.2252;0.8991;0.5137;1.0044;-0.1121;0.0;-4.38;-42.42;-13.5;220.49;-86.24;-149.12;0.0;996.99;54.23;55.701347;13.169365;239.35;NaN;;;51.658066;;0 / 5;197548;2020-12-03 17:26:21:331
-0.3735;9.5723;0.9625;-0.5691;9.7636;0.7198;0.1956;-0.1913;0.2427;-0.3745;0.7246;-0.1334;0.0;4.92;-43.74;-21.48;30.63;-84.63;38.33;0.0;996.99;55.247;55.701347;13.169365;239.35;NaN;;;51.658066;;0 / 5;198049;2020-12-03 17:26:21:832
0.3998;9.1389;-0.5243;-0.0331;9.8022;-0.2913;0.5383;-1.8341;0.0184;0.4172;0.1058;0.2746;0.0;7.14;-48.78;-17.28;153.19;-88.29;173.52;0.0;997.02;62.734;55.701347;13.169365;239.35;NaN;;;51.658066;;0 / 5;198548;2020-12-03 17:26:22:331
-0.0742;9.1629;-1.5371;0.1983;9.7747;-0.7649;1.7099;-2.24;-1.5839;-0.76;-0.4073;-0.1548;0.0;4.68;-50.1;-17.34;178.48;-85.38;-165.47;0.0;997.03;51.979;55.701347;13.169365;239.35;NaN;;;51.658066;;0 / 5;199048;2020-12-03 17:26:22:831
-0.9529;9.0001;-0.4046;-0.6263;9.764;0.6648;0.2552;-1.499;-1.1963;0.6053;0.242;-0.0864;0.0;5.22;-48.72;-25.08;38.51;-84.66;43.29;0.0;996.99;55.526;55.701347;13.169365;239.35;NaN;;;51.658066;;0 / 5;199548;2020-12-03 17:26:23:331
-0.6225;9.3281;-0.4166;0.2347;9.6701;-1.6136;-0.9506;-0.3612;1.0629;0.4141;-0.6437;0.0266;0.0;-0.6;-54.42;-13.92;187.61;-80.43;-171.72;0.0;997.0;60.879;55.701347;13.169365;239.35;NaN;;;51.658066;;0 / 5;200048;2020-12-03 17:26:23:831
-1.178;9.2826;1.0247;-0.6424;9.7772;0.4044;-0.6074;-0.5114;0.4695;-0.121;0.5438;0.0633;0.0;3.6;-50.58;-27.36;56.39;-85.56;57.81;0.0;996.99;56.886;55.701347;13.169365;239.35;NaN;;;51.658066;;0 / 5;200548;2020-12-03 17:26:24:331
0.1413;9.8261;-0.6536;0.0943;9.7575;-0.9757;0.0469;0.0686;0.3221;0.5674;-0.2534;0.2245;0.0;2.94;-53.64;-21.3;177.91;-84.26;-174.48;0.0;997.01;60.775;55.701347;13.169365;239.35;NaN;;;51.658066;;0 / 5;201048;2020-12-03 17:26:24:831
-0.5818;8.0663;-0.3208;-0.0274;9.8053;-0.1595;-1.9886;-0.221;0.0949;-0.4631;0.3019;-0.299;0.0;1.38;-51.24;-27.0;168.48;-89.05;170.25;0.0;997.06;55.143;55.701347;13.169365;239.35;NaN;;;51.658066;;0 / 5;201548;2020-12-03 17:26:25:331
1.7837;9.8716;-0.9721;-0.2893;9.7985;-0.2766;1.9293;-0.4919;-0.1281;0.81;0.435;0.2386;0.0;3.12;-49.32;-25.86;68.4;-87.28;70.22;0.0;997.0;62.107;55.701347;13.169365;239.35;NaN;;;51.658066;;0 / 5;202048;2020-12-03 17:26:25:831
2.6074;8.0496;-2.8947;0.0171;9.7464;-1.0856;2.9758;-2.1158;-2.2856;-1.1112;-0.2656;-0.2623;0.0;-3.0;-47.94;-17.46;188.39;-83.64;-179.1;0.0;997.03;53.653;55.701347;13.169365;239.35;NaN;;;51.658066;;0 / 5;202548;2020-12-03 17:26:26:331
2.7606;9.3257;-0.826;-0.355;9.7664;0.8128;3.0869;6.9719;2.6924;-0.2969;-0.2271;-0.3668;0.0;-1.2;-43.5;-20.7;32.07;-84.81;23.59;0.0;997.01;58.629;55.701347;13.169365;239.35;NaN;;;51.658066;;0 / 5;203048;2020-12-03 17:26:26:831
-0.8619;10.1709;-0.486;0.3113;9.6425;-1.7593;-1.4869;-0.2043;1.2541;0.2211;-0.4415;0.0853;0.0;-1.92;-46.92;-6.3;192.13;-79.5;-169.97;0.0;996.99;62.022;55.701347;13.169365;239.35;NaN;;;51.658066;;0 / 5;203548;2020-12-03 17:26:27:331
-1.3001;10.6042;1.5371;-0.3023;9.7968;0.3188;-0.9523;-0.3298;1.1464;0.1569;0.5218;0.351;0.0;1.14;-45.24;-13.2;45.43;-87.43;43.47;0.0;996.98;58.822;55.701347;13.169365;239.35;NaN;;;51.658066;;0 / 5;204048;2020-12-03 17:26:27:831
0.2107;10.044;-0.4932;0.2703;9.7066;-1.3705;-0.2344;0.3948;1.0233;0.6847;-0.4501;0.2129;0.0;1.14;-44.82;-5.58;178.2;-83.8;-173.77;0.0;996.98;61.151;55.701347;13.169365;239.35;NaN;;;51.658066;;0 / 5;204549;2020-12-03 17:26:28:332
-1.008;9.7112;0.5818;-0.4673;9.7908;0.3029;-1.2494;-0.5034;0.5997;-0.3244;0.2976;0.0181;0.0;3.84;-44.1;-13.26;62.77;-88.0;74.09;0.0;997.0;55.919;55.701347;13.169365;239.35;NaN;;;51.658066;;0 / 5;205048;2020-12-03 17:26:28:831
0.5196;8.0328;-0.182;-0.089;9.7784;-0.7378;0.6086;-1.7456;0.5558;0.2101;-0.5063;0.186;0.0;1.38;-43.26;-9.0;145.29;-86.73;142.79;0.0;997.01;57.152;55.701347;13.169365;239.35;NaN;;;51.658066;;0 / 5;205549;2020-12-03 17:26:29:332
-1.8173;11.538;-0.6417;0.2453;9.7924;-0.4671;-2.3044;1.6905;-0.8258;-1.27;-0.0524;0.0449;0.0;-3.18;-43.38;-12.12;215.54;-86.92;-152.29;0.0;997.05;52.872;55.701347;13.169365;239.35;NaN;;;51.658066;;0 / 5;206048;2020-12-03 17:26:29:831
-1.5946;9.1437;-0.8955;-0.813;9.764;0.4161;0.5712;-0.9555;-1.0505;0.6029;0.4008;0.0229;0.0;-5.58;-45.6;-22.56;87.95;-84.66;62.9;0.0;997.02;63.537;55.701347;13.169365;239.35;NaN;;;51.658066;;0 / 5;206549;2020-12-03 17:26:30:332
-1.1301;11.9833;-2.3368;-0.0984;9.6611;-1.6806;-1.0317;2.3223;-0.6562;-0.2493;0.0056;-0.0986;0.0;-14.76;-51.3;-15.12;210.05;-80.12;176.65;0.0;997.02;55.095;55.701347;13.169365;239.35;NaN;;;51.658066;;0 / 5;207048;2020-12-03 17:26:30:831
-0.4908;9.2108;-0.0527;-0.2372;9.7964;-0.381;-0.3398;-0.4371;0.3786;0.2125;0.5175;0.1537;0.0;-10.08;-51.84;-29.7;145.42;-87.91;125.06;0.0;997.0;54.522;55.701347;13.169365;239.35;NaN;;;51.658066;;0 / 5;207549;2020-12-03 17:26:31:332
1.7789;10.3888;-1.154;0.2153;9.7651;-0.8758;0.9891;-0.0443;-0.5153;0.1459;-0.1599;-0.0278;0.0;-0.84;-63.54;-38.22;193.33;-84.72;-166.19;0.0;997.02;46.169;55.701347;13.169365;239.35;NaN;;;51.658066;;0 / 5;208048;2020-12-03 17:26:31:831
-0.7973;9.9889;-0.2586;0.434;9.7162;-1.2555;-1.2313;0.2727;0.997;0.0103;-0.5735;0.0565;0.0;-18.78;-61.02;-32.28;224.07;-81.83;-157.55;0.0;997.04;51.647;55.701347;13.169365;239.35;NaN;;;51.658066;;0 / 5;208548;2020-12-03 17:26:32:331
-0.9194;9.2132;0.1006;-0.1258;9.8027;-0.2469;-0.535;-0.6279;0.1966;0.0989;-0.9156;-0.0717;0.0;-12.54;-58.2;-43.74;169.82;-88.38;153.0;0.0;997.0;51.287;55.701347;13.169365;239.35;NaN;;;51.658066;;0 / 5;209048;2020-12-03 17:26:32:831
1.3671;10.6138;-1.4964;-0.094;9.7995;-0.3614;0.7213;-0.4116;-0.2228;-0.0538;-1.5985;0.0223;0.0;-23.16;-61.5;-39.78;194.6;-87.82;165.42;0.0;997.01;50.826;55.701347;13.169365;239.35;NaN;;;51.658066;;0 / 5;209548;2020-12-03 17:26:33:331
-1.415;10.5396;-1.4629;0.0836;9.6637;-1.666;-1.4986;0.8759;0.2031;0.116;-0.3603;-0.1536;0.0;-24.24;-48.78;-15.42;228.45;-80.21;-177.13;0.0;997.02;51.966;55.701347;13.169365;239.35;NaN;;;51.658066;;0 / 5;210049;2020-12-03 17:26:33:832
-1.5228;9.7255;0.6728;-1.0736;9.7474;-0.0802;-0.4276;-0.0625;0.4897;0.1661;2.2884;-0.0259;0.0;-9.0;-45.3;-24.18;112.97;-83.71;82.29;0.0;996.97;57.707;55.701347;13.169365;239.35;NaN;;;51.658066;;0 / 5;210548;2020-12-03 17:26:34:331
1.4868;9.5412;0.498;0.5885;9.7806;-0.4046;0.9319;0.0048;0.7829;0.1905;2.1479;0.0602;0.0;4.74;-47.82;-14.22;209.29;-85.82;-124.51;0.0;996.97;56.414;55.701347;13.169365;239.35;NaN;;;51.658066;;0 / 5;211048;2020-12-03 17:26:34:831
0.3663;9.771;-1.7622;0.0686;9.7963;-0.4446;0.2977;-0.0253;-1.3176;-0.3116;1.6427;-0.6679;0.0;10.14;-46.98;2.34;128.7;-86.38;-143.09;0.0;997.02;59.227;55.701347;13.169365;239.35;NaN;;;51.658066;;0 / 5;211548;2020-12-03 17:26:35:331
-1.4581;9.4502;1.099;-0.7962;9.7582;0.5596;-0.1878;-0.715;0.446;-0.289;0.8675;0.1011;0.0;11.28;-48.54;6.84;270.41;-84.3;54.9;0.0;997.01;57.747;55.701347;13.169365;239.35;NaN;;;51.658066;;0 / 5;212048;2020-12-03 17:26:35:831
0.3927;9.6801;-0.5267;0.0565;9.7493;-1.0571;0.8246;0.1438;0.5974;0.6096;-0.0817;0.0883;0.0;12.12;-49.08;18.36;47.3;-83.8;-176.94;0.0;996.98;62.321;55.701347;13.169365;239.35;NaN;;;51.658066;;0 / 5;212549;2020-12-03 17:26:36:332
0.2227;9.4574;0.103;-1.0125;9.7534;0.1258;0.8233;-0.5067;0.1639;-0.5077;1.7386;-0.0724;0.0;10.02;-46.14;24.9;290.95;-84.44;98.18;0.0;996.99;56.145;55.701347;13.169365;239.35;NaN;;;51.658066;;0 / 5;213048;2020-12-03 17:26:36:831
0.656;8.5428;-0.1915;-0.2951;9.8002;-0.1954;3.1299;0.8447;0.5497;0.4575;1.2298;0.3864;0.0;-7.56;-45.06;23.64;281.45;-87.93;123.5;0.0;996.99;55.162;55.701347;13.169365;239.35;NaN;;;51.658066;;0 / 5;213549;2020-12-03 17:26:37:332
1.6999;7.1828;-2.8779;0.3368;9.7508;-0.9896;0.3551;-0.3269;-1.5986;-0.8052;0.1925;-0.3295;0.0;-7.8;-41.28;23.28;359.53;-83.88;-161.2;0.0;997.01;56.922;55.701347;13.169365;239.35;NaN;;;51.658066;;0 / 5;214049;2020-12-03 17:26:37:832
1.743;14.1119;3.2682;-0.2131;9.7621;0.909;1.9561;4.3498;2.3591;0.0299;-0.108;-0.4712;0.0;-10.8;-43.02;12.54;158.03;-84.54;13.19;0.0;996.99;55.036;55.701347;13.169365;239.35;NaN;;;51.658066;;0 / 5;214548;2020-12-03 17:26:38:331
-0.4525;9.1653;-0.2969;0.4137;9.6358;-1.7752;-0.8662;-0.4705;1.4783;0.4728;-0.6199;0.1555;0.0;-11.58;-39.0;17.46;326.2;-79.29;-166.88;0.0;996.99;62.697;55.701347;13.169365;239.35;NaN;;;51.658066;;0 / 5;215048;2020-12-03 17:26:38:831
-1.2426;9.3616;1.1493;-0.4337;9.7927;0.2923;-0.809;-0.4311;0.857;-0.1436;0.5554;0.1317;0.0;-9.72;-44.4;5.46;173.86;-86.94;56.02;0.0;996.98;59.327;55.701347;13.169365;239.35;NaN;;;51.658066;;0 / 5;215549;2020-12-03 17:26:39:332
0.4142;10.7766;-0.7901;0.2079;9.7448;-1.0792;0.1106;0.7469;0.4519;0.7171;-0.2271;0.3217;0.0;-12.24;-42.72;6.12;285.38;-85.07;-175.68;0.0;997.0;61.136;55.701347;13.169365;239.35;NaN;;;51.658066;;0 / 5;216048;2020-12-03 17:26:39:831
-0.6752;8.4302;0.352;-0.0739;9.8055;-0.1274;-0.6013;-1.8757;-0.9907;-0.5462;0.3721;-0.4572;0.0;-10.2;-44.22;-1.14;231.24;-89.14;149.89;0.0;997.02;56.846;55.701347;13.169365;239.35;NaN;;;51.658066;;0 / 5;216548;2020-12-03 17:26:40:331
2.0519;9.8955;0.2131;-0.4277;9.7959;-0.1681;1.1268;-0.6306;-1.4384;0.5338;0.1498;0.1085;0.0;-6.24;-44.34;-4.08;170.47;-87.31;111.46;0.0;997.01;58.875;55.701347;13.169365;239.35;NaN;;;51.658066;;0 / 5;217048;2020-12-03 17:26:40:831
3.4238;7.6808;-3.7399;0.0134;9.7278;-1.2412;3.2285;-0.8498;-2.3741;-1.0361;-0.2766;-0.0943;0.0;-3.9;-42.6;5.1;263.63;-82.73;-179.38;0.0;997.04;54.743;55.701347;13.169365;239.35;NaN;;;51.658066;;0 / 5;217549;2020-12-03 17:26:41:332
0.826;9.0982;0.0694;-0.5466;9.7801;0.4691;1.3726;-0.6819;-0.3997;0.5534;0.1003;-0.3301;0.0;-8.58;-45.3;-0.72;145.03;-85.79;49.36;0.0;997.02;61.41;55.701347;13.169365;239.35;NaN;;;51.658066;;0 / 5;218048;2020-12-03 17:26:41:831
-1.7502;11.4638;-1.9896;0.1687;9.6219;-1.8869;-1.1959;-0.0185;1.5541;0.1264;-0.4562;0.1024;0.0;1.2;-42.54;14.7;20.42;-78.86;-174.89;0.0;997.01;55.78;55.701347;13.169365;239.35;NaN;;;51.658066;;0 / 5;218548;2020-12-03 17:26:42:331
-1.1612;9.9889;1.4964;-0.3354;9.799;0.1938;-0.821;0.075;1.305;0.3066;0.454;0.3382;0.0;-5.46;-45.9;17.1;219.84;-87.74;59.98;0.0;996.99;56.814;55.701347;13.169365;239.35;NaN;;;51.658066;;0 / 5;219048;2020-12-03 17:26:42:831
-0.1484;8.9929;-0.1604;0.2576;9.6715;-1.6021;-0.4228;-0.1638;1.4488;0.7531;-0.6224;0.1408;0.0;-8.46;-44.88;23.94;346.61;-80.48;-170.87;0.0;996.98;62.431;55.701347;13.169365;239.35;NaN;;;51.658066;;0 / 5;219549;2020-12-03 17:26:43:332
-1.9753;9.886;1.1062;-0.5263;9.7912;0.1592;0.2223;-0.0082;0.3268;-0.4429;0.3373;-0.1334;0.0;-6.36;-49.26;17.88;228.54;-86.79;73.17;0.0;996.99;57.627;55.701347;13.169365;239.35;NaN;;;51.658066;;0 / 5;220048;2020-12-03 17:26:43:831
0.9577;8.4518;-0.4046;-0.2841;9.7692;-0.8072;1.328;-1.6957;0.2685;0.5784;-0.3194;0.1439;0.0;-12.24;-47.34;18.3;297.08;-84.99;160.61;0.0;996.99;61.447;55.701347;13.169365;239.35;NaN;;;51.658066;;0 / 5;220549;2020-12-03 17:26:44:332
-2.4278;10.372;-0.5411;0.1707;9.8011;-0.2824;-2.5984;0.5709;-0.2588;-0.8424;0.3721;-0.0791;0.0;-8.7;-49.02;14.52;0.2;-88.07;-148.85;0.0;997.05;55.221;55.701347;13.169365;239.35;NaN;;;51.658066;;0 / 5;221048;2020-12-03 17:26:44:831
-0.6105;8.6457;-1.0894;-0.2575;9.799;0.2873;0.133;-0.4446;-1.3647;0.4367;-0.2265;-0.0565;0.0;-9.54;-48.96;8.7;154.45;-86.26;16.62;0.0;997.03;60.14;55.701347;13.169365;239.35;NaN;;;51.658066;;0 / 5;221549;2020-12-03 17:26:45:332
-0.4836;11.5284;-3.996;0.1933;9.6861;-1.5208;-0.5381;-0.1928;1.6477;0.2828;-0.8924;0.0364;0.0;-7.5;-43.68;22.08;344.99;-81.01;-172.76;0.0;997.03;51.945;55.701347;13.169365;239.35;NaN;;;51.658066;;0 / 5;222048;2020-12-03 17:26:45:831
-1.1684;9.6537;0.0862;-0.2898;9.8019;-0.0904;-0.4979;-0.1506;0.1574;-0.0104;-0.1117;0.194;0.0;-0.48;-47.28;14.58;270.75;-88.3;96.07;0.0;997.01;55.775;55.701347;13.169365;239.35;NaN;;;51.658066;;0 / 5;222548;2020-12-03 17:26:46:331
-0.4094;9.3425;-0.3879;0.0056;9.7467;-1.0824;-0.415;-0.4042;0.6946;0.6017;-0.5619;0.1909;0.0;4.92;-45.48;18.18;21.55;-83.66;-179.7;0.0;996.99;61.099;55.701347;13.169365;239.35;NaN;;;51.658066;;0 / 5;223048;2020-12-03 17:26:46:831
-1.5108;10.8844;-0.6488;-0.4006;9.7601;-0.8662;-1.3712;0.8729;-0.4219;-1.1534;0.7332;-0.1957;0.0;5.52;-43.98;20.7;348.92;-84.42;155.18;0.0;997.04;52.305;55.701347;13.169365;239.35;NaN;;;51.658066;;0 / 5;223549;2020-12-03 17:26:47:332
1.2666;9.8907;0.0934;-0.4685;9.7933;0.2052;0.411;-0.2258;-0.1046;0.507;1.7887;0.095;0.0;-20.34;-51.84;12.9;179.39;-86.29;56.28;0.0;997.03;56.578;55.701347;13.169365;239.35;NaN;;;51.658066;;0 / 5;224048;2020-12-03 17:26:47:831
1.2929;9.6274;0.2562;0.5774;9.7664;-0.6744;0.9454;0.1747;0.7007;0.6835;1.1748;-0.1713;0.0;-55.74;-52.74;-17.16;289.15;-84.81;-139.43;0.0;996.99;52.274;55.701347;13.169365;239.35;NaN;;;51.658066;;0 / 5;224549;2020-12-03 17:26:48:332
-0.1915;9.9195;0.9936;-0.9276;9.7232;0.8774;0.7744;0.1149;0.2192;-0.6494;1.8687;-0.2214;0.0;-2.7;-47.94;-24.06;67.84;-82.52;46.59;0.0;997.0;49.875;55.701347;13.169365;239.35;NaN;;;51.658066;;0 / 5;225048;2020-12-03 17:26:48:831
0.4094;9.0528;0.0215;-0.1684;9.7907;-0.5317;0.5683;-1.0229;0.5629;-0.0544;1.1345;0.0364;0.0;-6.66;-42.72;-12.84;189.22;-86.74;162.42;0.0;997.01;63.122;55.701347;13.169365;239.35;NaN;;;51.658066;;0 / 5;225549;2020-12-03 17:26:49:332
1.9585;7.1637;-3.2155;0.0318;9.7727;-0.8143;1.582;-2.5013;-2.4347;-0.738;0.6372;-0.5543;0.0;-1.86;-46.5;-12.78;188.54;-85.23;-177.77;0.0;997.0;53.531;55.701347;13.169365;239.35;NaN;;;51.658066;;0 / 5;226048;2020-12-03 17:26:49:831
3.4047;17.9259;1.3695;-0.352;9.7618;0.8675;-2.3224;0.9238;1.7423;-0.6091;0.5377;0.2416;0.0;5.88;-46.02;-21.12;7.72;-84.52;22.08;0.0;997.01;55.231;55.701347;13.169365;239.35;NaN;;;51.658066;;0 / 5;226548;2020-12-03 17:26:50:331
-0.2394;9.1773;-0.8188;0.3878;9.6924;-1.4413;-0.3424;-0.0842;0.4931;0.2504;-0.4012;0.1274;0.0;3.72;-49.26;-10.8;178.0;-82.32;-163.11;0.0;996.98;52.955;55.701347;13.169365;239.35;NaN;;;51.658066;;0 / 5;227048;2020-12-03 17:26:50:831
-1.1564;8.9043;0.6943;-0.293;9.7988;0.261;-0.9783;-0.1355;0.4309;-0.3091;0.2005;-0.1041;0.0;3.3;-48.12;-21.48;43.79;-87.71;48.3;0.0;996.99;54.274;55.701347;13.169365;239.35;NaN;;;51.658066;;0 / 5;227549;2020-12-03 17:26:51:332
0.3065;7.7239;-0.6177;-0.1184;9.7813;-0.6946;0.3578;-2.4476;0.685;0.5497;-0.1954;0.1201;0.0;5.58;-51.12;-18.96;156.89;-85.88;170.33;0.0;997.0;62.994;55.701347;13.169365;239.35;NaN;;;51.658066;;0 / 5;228048;2020-12-03 17:26:51:831
-2.6074;9.2706;-0.4262;0.0713;9.8053;-0.1434;-2.7122;1.0264;-0.2852;-0.3782;-0.2888;-0.2318;0.0;3.3;-51.3;-23.22;198.37;-89.06;-153.55;0.0;997.04;54.259;55.701347;13.169365;239.35;NaN;;;51.658066;;0 / 5;228548;2020-12-03 17:26:52:331
-0.7039;8.6529;-1.2498;-0.4935;9.7942;-0.0028;-0.2104;-1.1413;-1.2471;0.3646;-0.0194;0.1445;0.0;1.8;-49.32;-23.76;91.44;-87.12;90.32;0.0;996.99;58.863;55.701347;13.169365;239.35;NaN;;;51.658066;;0 / 5;229049;2020-12-03 17:26:52:832
2.186;10.7048;-2.9545;0.0359;9.6414;-1.7924;-2.0734;1.5614;0.2601;-0.6353;-0.1905;-0.0559;0.0;-0.78;-53.52;-19.08;182.77;-79.47;-178.85;0.0;997.02;58.961;55.701347;13.169365;239.35;NaN;;;51.658066;;0 / 5;229548;2020-12-03 17:26:53:331
-3.1413;9.6202;2.3943;-0.38;9.7876;0.4791;-2.7612;-0.1674;1.9152;-0.5565;0.2744;0.0504;0.0;-0.48;-47.58;-27.78;70.2;-87.93;66.85;0.0;997.0;59.818;55.701347;13.169365;239.35;NaN;;;51.658066;;0 / 5;230048;2020-12-03 17:26:53:831
0.1724;8.8014;-0.6967;0.3706;9.6262;-1.8356;-0.5358;-0.4848;1.2586;0.5705;-0.3524;0.1262;0.0;-5.4;-47.76;-12.42;200.23;-78.99;-168.59;0.0;996.98;55.858;55.701347;13.169365;239.35;NaN;;;51.658066;;0 / 5;230549;2020-12-03 17:26:54:332
-1.5946;8.9187;1.2211;-0.4906;9.7909;0.2607;-0.9986;-0.4317;0.5605;-0.358;0.5035;0.0291;0.0;-0.18;-44.58;-15.9;70.7;-86.75;62.01;0.0;997.0;57.883;55.701347;13.169365;239.35;NaN;;;51.658066;;0 / 5;231048;2020-12-03 17:26:54:831
0.1293;10.3959;-0.8907;0.1604;9.7475;-1.0633;-0.0718;0.3132;0.2589;0.6114;-0.1477;0.2899;0.0;-0.06;-46.32;-9.06;182.01;-84.82;-177.07;0.0;996.97;63.626;55.701347;13.169365;239.35;NaN;;;51.658066;;0 / 5;231548;2020-12-03 17:26:55:331
-1.9609;9.1509;-0.3041;0.2488;9.7946;-0.4173;-2.1834;0.5966;-0.04;-0.5095;0.0777;-0.2275;0.0;-0.42;-45.36;-8.76;192.51;-84.92;-162.04;0.0;997.03;52.405;55.701347;13.169365;239.35;NaN;;;51.658066;;0 / 5;232048;2020-12-03 17:26:55:831
0.6034;8.7894;-2.3512;-0.3881;9.7984;0.1009;0.2516;-1.689;-2.0953;0.5003;-0.2082;0.0791;0.0;2.7;-44.46;-11.4;68.65;-87.66;75.43;0.0;997.0;60.214;55.701347;13.169365;239.35;NaN;;;51.658066;;0 / 5;232548;2020-12-03 17:26:56:331
3.0359;8.1118;-3.5292;0.127;9.7349;-1.1768;2.909;-1.6231;-2.3524;-0.942;-0.5802;-0.1334;0.0;-0.12;-43.44;-2.46;181.72;-83.07;-173.84;0.0;996.99;53.405;55.701347;13.169365;239.35;NaN;;;51.658066;;0 / 5;233048;2020-12-03 17:26:56:831
3.3089;20.4351;-0.1173;-0.0922;9.7926;0.5159;-1.6341;2.5116;-0.5781;-0.917;-0.8966;-0.1322;0.0;-1.62;-43.26;-13.38;22.78;-86.94;10.13;0.0;996.98;57.932;55.701347;13.169365;239.35;NaN;;;51.658066;;0 / 5;233548;2020-12-03 17:26:57:331
-0.7901;9.0097;-0.759;0.4239;9.6156;-1.8788;-0.4215;0.4307;1.4646;0.4923;-0.5112;0.1268;0.0;-7.26;-46.32;-5.58;211.57;-78.67;-167.29;0.0;997.0;54.273;55.701347;13.169365;239.35;NaN;;;51.658066;;0 / 5;234049;2020-12-03 17:26:57:832
-1.0894;9.0815;1.3145;-0.3864;9.7987;0.0848;-0.3391;-0.7866;0.9424;0.3042;0.6085;0.2539;0.0;-7.38;-45.24;-22.08;116.92;-87.69;95.26;0.0;996.99;54.654;55.701347;13.169365;239.35;NaN;;;51.658066;;0 / 5;234548;2020-12-03 17:26:58:331
0.8955;9.9195;-0.316;0.314;9.7695;-0.7926;0.8544;0.5187;0.3113;0.3536;-0.207;0.2936;0.0;-7.68;-50.94;-27.96;212.91;-85.01;-158.39;0.0;997.02;63.734;55.701347;13.169365;239.35;NaN;;;51.658066;;0 / 5;235049;2020-12-03 17:26:58:832
0.6776;8.1573;-0.3041;0.2192;9.7955;-0.4134;0.0466;-1.7052;-0.7335;-0.0373;-0.8765;-0.3393;0.0;-15.54;-49.14;-29.94;232.89;-87.27;-152.07;0.0;997.03;49.555;55.701347;13.169365;239.35;NaN;;;51.658066;;0 / 5;235548;2020-12-03 17:26:59:331
1.822;10.0847;-0.2131;0.0448;9.806;-0.1006;1.7772;0.2787;-0.1125;0.4245;-0.9498;0.0883;0.0;-28.44;-53.28;-32.58;243.62;-89.36;-155.99;0.0;997.02;57.677;55.701347;13.169365;239.35;NaN;;;51.658066;;0 / 5;236048;2020-12-03 17:26:59:831
0.7494;11.617;-2.6792;-0.0139;9.7589;-0.9659;-0.7714;2.6075;-2.9511;-0.6799;-0.9767;-0.0235;0.0;-37.14;-55.14;-18.18;237.0;-84.35;179.18;0.0;997.0;51.543;55.701347;13.169365;239.35;NaN;;;51.658066;;0 / 5;236548;2020-12-03 17:27:00:331
-2.1884;9.5292;0.0742;-0.9436;9.761;-0.041;-1.0699;-0.2199;0.12;-0.1693;0.6379;0.0871;0.0;-22.92;-48.54;-23.22;142.44;-84.47;92.49;0.0;997.0;54.789;55.701347;13.169365;239.35;NaN;;;51.658066;;0 / 5;237048;2020-12-03 17:27:00:831
1.1469;9.1413;-0.1461;0.2998;9.7419;-1.0839;1.1702;-0.5886;1.1773;0.2541;0.8608;-0.0901;0.0;-13.2;-45.24;-18.24;222.44;-83.42;-164.54;0.0;997.01;60.892;55.701347;13.169365;239.35;NaN;;;51.658066;;0 / 5;237548;2020-12-03 17:27:01:331
-0.7542;9.8405;0.5004;-0.5854;9.7864;0.2338;-0.1688;0.0541;0.2666;-0.3055;1.9726;0.0333;0.0;2.1;-47.7;-23.94;70.45;-86.31;68.22;0.0;997.04;55.144;55.701347;13.169365;239.35;NaN;;;51.658066;;0 / 5;238048;2020-12-03 17:27:01:831
1.5036;9.4502;0.1987;0.2869;9.7967;-0.3362;1.3388;0.312;0.7049;-0.0312;1.782;0.0394;0.0;6.84;-49.08;-8.4;179.42;-87.42;-139.52;0.0;997.01;50.704;55.701347;13.169365;239.35;NaN;;;51.658066;;0 / 5;238548;2020-12-03 17:27:02:331
0.8548;10.1278;-1.4342;0.6792;9.7749;-0.3993;-0.6457;-0.1069;-1.4755;-0.2389;0.9854;-0.4016;0.0;7.8;-50.58;6.0;131.84;-84.49;-122.62;0.0;996.99;47.712;55.701347;13.169365;239.35;NaN;;;51.658066;;0 / 5;239049;2020-12-03 17:27:02:832
-1.8508;9.0025;0.5411;-0.5343;9.787;0.314;-0.7418;-0.6936;-0.2877;-0.1069;0.5713;-0.0229;0.0;12.9;-52.14;5.1;296.24;-86.38;59.56;0.0;997.01;54.505;55.701347;13.169365;239.35;NaN;;;51.658066;;0 / 5;239550;2020-12-03 17:27:03:333
1.166;9.5627;-0.182;0.291;9.7721;-0.7695;0.377;-0.3314;1.0042;0.5546;0.0814;0.0193;0.0;6.36;-49.56;15.72;52.65;-85.19;-159.29;0.0;996.97;58.821;55.701347;13.169365;239.35;NaN;;;51.658066;;0 / 5;240049;2020-12-03 17:27:03:832
-0.1173;9.2084;0.0742;-0.9153;9.7638;-0.0071;0.7979;-0.5555;0.0813;-0.6482;1.5749;-0.335;0.0;12.48;-49.56;18.84;291.44;-84.64;90.44;0.0;997.02;56.357;55.701347;13.169365;239.35;NaN;;;51.658066;;0 / 5;240549;2020-12-03 17:27:04:332
1.4677;9.965;-0.8308;-0.5453;9.7912;-0.0654;0.5046;-1.4951;-1.7231;0.3414;1.2426;-0.0516;0.0;-3.0;-49.02;22.8;262.67;-86.79;96.84;0.0;997.01;57.069;55.701347;13.169365;239.35;NaN;;;51.658066;;0 / 5;241049;2020-12-03 17:27:04:832
1.5874;7.202;-2.6792;0.3597;9.7401;-1.0824;1.1175;0.4308;-1.683;-0.8882;0.264;-0.2269;0.0;-6.84;-41.82;25.5;4.08;-83.32;-161.62;0.0;997.0;54.012;55.701347;13.169365;239.35;NaN;;;51.658066;;0 / 5;241549;2020-12-03 17:27:05:332
2.7534;18.0983;1.3671;-0.2685;9.784;0.6088;-1.9989;-0.0369;1.8884;-0.5504;0.2066;-0.0436;0.0;-6.72;-45.36;12.66;176.26;-86.11;23.8;0.0;996.98;59.567;55.701347;13.169365;239.35;NaN;;;51.658066;;0 / 5;242048;2020-12-03 17:27:05:831
-1.178;10.2355;-0.8955;0.2908;9.6817;-1.5332;-1.2628;0.166;1.4757;0.2339;-0.2363;0.0804;0.0;-10.62;-39.72;18.48;330.4;-80.84;-169.26;0.0;996.99;56.752;55.701347;13.169365;239.35;NaN;;;51.658066;;0 / 5;242548;2020-12-03 17:27:06:331
-1.3097;9.7758;1.2187;-0.4045;9.7934;0.3102;-1.0153;-0.7454;1.0545;0.5204;0.6189;0.5263;0.0;-9.48;-44.28;4.86;173.09;-87.02;52.52;0.0;996.99;60.437;55.701347;13.169365;239.35;NaN;;;51.658066;;0 / 5;243048;2020-12-03 17:27:06:831
-0.1652;8.538;0.1963;0.278;9.6562;-1.6882;-0.4432;-1.1182;1.8845;0.4691;-0.7054;0.1243;0.0;-12.6;-42.78;8.4;281.53;-79.95;-170.65;0.0;997.01;63.711;55.701347;13.169365;239.35;NaN;;;51.658066;;0 / 5;243548;2020-12-03 17:27:07:331
-1.9418;9.6657;1.9633;-0.4776;9.79;0.312;-1.3732;0.2587;1.048;-0.2823;0.4124;0.1989;0.0;-12.48;-42.42;0.12;181.82;-87.81;92.06;0.0;997.06;59.126;55.701347;13.169365;239.35;NaN;;;51.658066;;0 / 5;244048;2020-12-03 17:27:07:831
0.8476;10.5037;-0.7398;0.1797;9.7381;-1.143;0.3686;-0.525;0.645;0.7147;-0.601;0.1958;0.0;-7.68;-43.32;-0.18;244.09;-83.22;-171.07;0.0;997.0;63.583;55.701347;13.169365;239.35;NaN;;;51.658066;;0 / 5;244548;2020-12-03 17:27:08:331
-0.1604;9.1581;0.6105;-0.2515;9.8034;-0.0094;0.0528;-2.5631;-0.3737;-0.6518;0.5462;-0.5366;0.0;-2.76;-45.06;-0.78;168.05;-88.53;92.15;0.0;997.04;59.042;55.701347;13.169365;239.35;NaN;;;51.658066;;0 / 5;245049;2020-12-03 17:27:08:832
0.067;7.7359;-0.3424;0.0371;9.7401;-1.14;-0.4513;-0.8238;0.7737;0.2956;-0.8258;0.1451;0.0;-3.48;-47.7;2.76;244.34;-85.09;170.4;0.0;997.0;54.885;55.701347;13.169365;239.35;NaN;;;51.658066;;0 / 5;245549;2020-12-03 17:27:09:332
0.0383;8.0687;-0.261;-0.1015;9.8046;-0.1731;-1.6248;-2.2028;-0.6745;-0.5517;0.0618;-0.4969;0.0;0.36;-44.28;16.8;327.99;-88.83;149.61;0.0;997.03;55.118;55.701347;13.169365;239.35;NaN;;;51.658066;;0 / 5;246049;2020-12-03 17:27:09:832
1.0104;8.4686;-0.6153;-0.3008;9.7887;-0.5117;2.1564;-0.6425;0.1118;0.8252;-0.0475;0.2917;0.0;-6.72;-48.18;20.04;303.65;-86.53;149.55;0.0;997.0;60.149;55.701347;13.169365;239.35;NaN;;;51.658066;;0 / 5;246548;2020-12-03 17:27:10:331
-2.0974;8.4566;-0.3711;-0.0297;9.799;-0.3853;-2.0677;-1.3425;0.0141;-0.3568;-0.02;-0.3631;0.0;-6.12;-49.38;19.08;335.77;-87.74;175.59;0.0;997.04;54.582;55.701347;13.169365;239.35;NaN;;;51.658066;;0 / 5;247048;2020-12-03 17:27:10:831
2.2698;9.3233;-0.0263;-0.5067;9.7878;-0.3358;2.2904;-0.2562;-0.1526;0.4673;0.2799;0.2319;0.0;-11.04;-48.42;16.86;262.26;-86.45;123.54;0.0;997.0;61.513;55.701347;13.169365;239.35;NaN;;;51.658066;;0 / 5;247549;2020-12-03 17:27:11:332
2.0567;9.4263;-2.7678;0.028;9.7534;-1.0201;3.3647;-1.5051;-2.4899;-1.1314;-0.5533;-0.0968;0.0;-10.02;-45.9;21.0;330.07;-84.03;-178.43;0.0;997.03;54.046;55.701347;13.169365;239.35;NaN;;;51.658066;;0 / 5;248048;2020-12-03 17:27:11:831
-0.7518;8.8445;-0.8859;-0.5187;9.7914;0.1733;-0.2331;-0.9469;-1.0592;0.7635;-0.1954;-0.0418;0.0;-5.76;-45.72;13.32;220.16;-86.8;71.53;0.0;997.0;58.303;55.701347;13.169365;239.35;NaN;;;51.658066;;0 / 5;248548;2020-12-03 17:27:12:331
-0.6034;13.633;-4.1014;-0.012;9.6571;-1.7061;-2.1189;1.7157;0.497;-0.6671;0.0508;0.0565;0.0;-6.54;-39.3;27.48;346.05;-78.78;-175.4;0.0;996.99;61.012;55.701347;13.169365;239.35;NaN;;;51.658066;;0 / 5;249048;2020-12-03 17:27:12:831
-0.1484;12.4023;0.6872;-0.5862;9.784;0.3175;-0.6972;0.4396;0.2595;-0.198;1.1192;0.1072;0.0;-14.4;-48.6;8.7;183.58;-86.1;61.55;0.0;996.99;57.17;55.701347;13.169365;239.35;NaN;;;51.658066;;0 / 5;249548;2020-12-03 17:27:13:331
0.3544;8.8804;-0.6488;0.6446;9.7021;-1.2744;-0.2903;-0.8217;0.6255;0.1948;0.986;-0.2428;0.0;-23.28;-47.64;2.28;284.1;-82.19;-154.7;0.0;997.0;55.112;55.701347;13.169365;239.35;NaN;;;51.658066;;0 / 5;250048;2020-12-03 17:27:13:831
-0.1173;9.8979;1.1157;-0.8599;9.7564;0.494;0.6373;0.2158;0.2674;-0.4851;2.3636;-0.0375;0.0;-8.82;-45.72;-13.14;110.77;-84.2;60.13;0.0;997.01;57.752;55.701347;13.169365;239.35;NaN;;;51.658066;;0 / 5;250549;2020-12-03 17:27:14:332
2.2291;8.866;0.3256;-0.161;9.8048;-0.1041;2.3949;0.3709;0.7122;0.551;2.1888;0.1476;0.0;-7.2;-42.54;-15.84;147.96;-88.88;122.87;0.0;997.01;55.453;55.701347;13.169365;239.35;NaN;;;51.658066;;0 / 5;251049;2020-12-03 17:27:14:832
1.9849;7.9729;-2.5882;0.0173;9.7833;-0.676;1.7401;-2.1264;-2.0463;-0.8821;0.556;-0.5378;0.0;1.86;-46.92;-13.62;174.57;-86.05;-178.53;0.0;997.0;54.577;55.701347;13.169365;239.35;NaN;;;51.658066;;0 / 5;251548;2020-12-03 17:27:15:331
3.1269;20.1909;1.6688;-0.3151;9.7575;0.9282;-2.6035;2.1947;-1.2467;-0.8583;-0.5735;0.241;0.0;8.46;-47.76;-19.62;10.16;-86.32;30.49;0.0;997.01;55.455;55.701347;13.169365;239.35;NaN;;;51.658066;;0 / 5;252048;2020-12-03 17:27:15:831
-1.9729;9.7639;-0.1221;0.5269;9.6603;-1.6035;-1.6474;-0.5046;1.1486;0.4838;-0.9223;0.0535;0.0;4.92;-52.14;-11.88;177.35;-80.09;-161.81;0.0;996.99;62.202;55.701347;13.169365;239.35;NaN;;;51.658066;;0 / 5;252549;2020-12-03 17:27:16:332
-1.2354;9.4813;1.099;-0.2199;9.8025;0.1796;-0.7666;-0.0387;1.2833;0.1282;0.4332;0.3699;0.0;4.8;-49.14;-23.88;40.23;-87.8;49.14;0.0;997.01;59.514;55.701347;13.169365;239.35;NaN;;;51.658066;;0 / 5;253048;2020-12-03 17:27:16:831
0.0575;9.9267;-0.2825;0.2586;9.6966;-1.4419;0.3806;0.934;0.3669;0.6915;-0.3634;0.3076;0.0;1.02;-53.22;-16.68;184.68;-81.41;-169.83;0.0;997.0;60.62;55.701347;13.169365;239.35;NaN;;;51.658066;;0 / 5;253548;2020-12-03 17:27:17:331
-0.0168;9.3425;0.3639;-0.3774;9.7993;-0.0438;0.2769;-2.0514;-0.2531;-0.5309;0.501;-0.5452;0.0;2.28;-51.9;-26.58;96.62;-87.78;96.62;0.0;997.04;59.153;55.701347;13.169365;239.35;NaN;;;51.658066;;0 / 5;254048;2020-12-03 17:27:17:831
0.5172;8.2004;-0.4094;0.0519;9.7545;-1.0081;0.5754;-1.8271;0.7448;0.4111;-0.3096;0.1219;0.0;3.12;-52.44;-22.38;176.1;-84.09;-177.06;0.0;996.99;62.831;55.701347;13.169365;239.35;NaN;;;51.658066;;0 / 5;254549;2020-12-03 17:27:18:332
-3.0934;10.6545;-0.5076;0.1798;9.8011;-0.2769;-3.2732;0.8534;-0.2307;-0.9469;0.3929;-0.0168;0.0;-2.88;-48.0;-22.62;217.99;-88.07;-147.0;0.0;997.02;53.387;55.701347;13.169365;239.35;NaN;;;51.658066;;0 / 5;255048;2020-12-03 17:27:18:831
1.5922;9.6346;-1.9609;-0.549;9.7891;0.2064;7.0E-4;-1.3325;-1.7364;0.6047;0.1033;0.0205;0.0;-2.52;-45.36;-21.72;84.11;-86.57;69.39;0.0;996.99;62.51;55.701347;13.169365;239.35;NaN;;;51.658066;;0 / 5;255548;2020-12-03 17:27:19:331
2.4972;9.3544;-2.9354;-0.0132;9.739;-1.1497;3.3053;-1.7206;-2.322;-1.0116;-0.3603;-0.2293;0.0;-6.36;-45.9;-8.1;202.58;-80.38;-177.38;0.0;997.01;54.792;55.701347;13.169365;239.35;NaN;;;51.658066;;0 / 5;256048;2020-12-03 17:27:19:831
1.6784;16.0201;3.838;-0.3308;9.7823;0.6065;1.6046;9.2378;0.0639;-0.9108;-0.59;0.1812;0.0;-3.0;-42.9;-13.98;50.13;-85.96;28.61;0.0;997.0;57.569;55.701347;13.169365;239.35;NaN;;;51.658066;;0 / 5;256548;2020-12-03 17:27:20:331
-0.8452;9.443;-0.4908;0.3581;9.6473;-1.724;-0.7412;-0.5969;1.3649;0.4966;-0.3939;-0.0253;0.0;-0.9;-45.36;-4.62;188.93;-79.66;-168.27;0.0;997.01;62.904;55.701347;13.169365;239.35;NaN;;;51.658066;;0 / 5;257049;2020-12-03 17:27:20:832
-1.506;8.8205;1.8292;-0.3676;9.7984;0.16;-1.3635;-1.0115;0.6732;0.3005;0.4949;0.2484;0.0;0.78;-42.66;-8.82;74.0;-87.62;69.4;0.0;997.01;63.053;55.701347;13.169365;239.35;NaN;;;51.658066;;0 / 5;257548;2020-12-03 17:27:21:331
-0.0215;10.1972;-0.9194;0.1346;9.7444;-1.0946;-0.1561;0.4528;0.1752;0.5717;-0.4348;0.1317;0.0;0.48;-43.02;-4.5;183.18;-83.54;-172.99;0.0;997.18;60.578;55.701347;13.169365;239.35;NaN;;;51.658066;;0 / 5;258048;2020-12-03 17:27:21:831
0.5267;6.534;-1.5228;2.5089;9.4261;1.012;-3.3445;1.2523;-1.8596;-1.9237;1.2939;1.048;0.0;-11.64;-42.36;-16.38;295.17;-73.99;-68.03;0.0;997.01;64.944;55.701347;13.169365;239.35;NaN;;;51.658066;;0 / 5;258548;2020-12-03 17:27:22:331
-1.7837;6.103;6.3209;-5.6476;2.6297;7.5736;3.8639;3.4733;-1.2527;-3.3445;-0.3224;1.2037;24.0;21.6;-11.58;-38.52;51.99;-24.91;41.86;3.1;997.01;41.869;55.701347;13.169365;239.35;NaN;;;51.658066;;0 / 5;259048;2020-12-03 17:27:22:831
