ACCELEROMETER X (m/s²),ACCELEROMETER Y (m/s²),ACCELEROMETER Z (m/s²),GRAVITY X (m/s²),GRAVITY Y (m/s²),GRAVITY Z (m/s²),LINEAR ACCELERATION X (m/s²),LINEAR ACCELERATION Y (m/s²),LINEAR ACCELERATION Z (m/s²),GYROSCOPE X (rad/s),GYROSCOPE Y (rad/s),GYROSCOPE Z (rad/s),LIGHT (lux),MAGNETIC FIELD X (μT),MAGNETIC FIELD Y (μT),MAGNETIC FIELD Z (μT),ORIENTATION Z (azimuth °),ORIENTATION X (pitch °),ORIENTATION Y (roll °),PROXIMITY (i),ATMOSPHERIC PRESSURE (hPa),SOUND LEVEL (dB),LOCATION Latitude : ,LOCATION Longitude : ,LOCATION Altitude ( m),LOCATION Altitude-google ( m),LOCATION Altitude-atmospheric pressure ( m),LOCATION Speed ( Kmh),LOCATION Accuracy ( m),LOCATION ORIENTATION (°),Satellites in range,Time since start in ms ,YYYY-MO-DD HH-MI-SS_SSS
1.9058,3.4693,9.2204,0.3945,4.8232,8.5294,1.5114,-1.3539,0.6909,0.5563,-1.8609,-2.5292,10.0,4.14,-17.28,-39.0,309.1,-28.94,-1.26,3.1,995.68,0.0,55.701347,13.169366,214.19,NaN,,,60.290325,,0 / 0,29,2020-12-05 14:33:41:002
-0.1413,4.5419,8.3081,0.7978,4.6836,8.5789,-0.939,-0.1416,-0.2708,-0.4119,-1.7748,-2.0595,10.0,0.12,-15.9,-38.76,321.57,-29.55,-3.64,3.1,995.65,0.0,55.701347,13.169366,214.19,NaN,,,60.290325,,0 / 0,129,2020-12-05 14:33:41:102
0.6608,3.4741,11.3225,1.3131,4.2581,8.7358,-0.6523,-0.784,2.5867,-0.6819,-1.5213,-1.2592,11.0,-2.7,-13.56,-39.3,338.09,-26.69,-7.37,3.1,995.67,0.0,55.701347,13.169366,214.19,NaN,,,60.290325,,0 / 0,228,2020-12-05 14:33:41:201
0.1891,2.6361,8.5763,1.8403,4.287,8.6259,-1.6511,-1.6509,-0.0496,-0.4504,-0.4315,-1.5243,13.0,-8.1,-13.26,-38.34,5.76,-25.78,-9.68,3.1,995.67,0.0,55.701347,13.169366,214.19,NaN,,,60.290325,,0 / 0,329,2020-12-05 14:33:41:302
2.1884,3.1604,9.1006,2.4142,4.1222,8.5644,0.3414,-1.921,2.0729,0.2863,-1.4425,-1.9996,13.0,-13.44,-12.66,-37.68,29.81,-24.09,-15.21,3.1,995.65,0.0,55.701347,13.169366,214.19,NaN,,,60.290325,,0 / 0,429,2020-12-05 14:33:41:402
0.2203,4.3432,8.8875,2.5615,4.2729,8.447,-2.3412,0.0703,0.4406,-0.5408,-0.7449,-1.3386,11.0,-17.64,-15.9,-34.08,66.41,-25.72,-16.11,3.1,995.67,0.0,55.701347,13.169366,214.19,NaN,,,60.290325,,0 / 0,528,2020-12-05 14:33:41:501
2.0782,4.1086,9.6465,2.3596,4.0441,8.6167,-0.2814,0.0645,1.0298,-0.1462,-0.0436,-0.3692,11.0,-19.14,-16.08,-33.18,85.02,-24.53,-16.1,3.1,995.67,0.0,55.701347,13.169366,214.19,NaN,,,60.290325,,0 / 0,628,2020-12-05 14:33:41:601
0.3711,4.178,9.9291,1.8548,4.2608,8.6357,-0.9521,-0.0685,1.1856,0.2808,-0.2061,-1.2024,11.0,-16.74,-17.34,-32.94,78.6,-24.89,-12.76,3.1,995.69,0.0,55.701347,13.169366,214.19,NaN,,,60.290325,,0 / 0,729,2020-12-05 14:33:41:702
-0.3136,4.0942,9.9219,1.3491,4.3806,8.6695,-1.6627,-0.2864,1.2523,-0.1498,-0.3863,-0.7748,11.0,-15.18,-19.08,-33.48,90.99,-26.7,-10.82,3.1,995.69,0.0,55.701347,13.169366,214.19,NaN,,,60.290325,,0 / 0,828,2020-12-05 14:33:41:801
0.735,4.2881,9.6034,1.2532,4.3828,8.6828,-0.5182,-0.0946,0.9206,-0.1932,-0.5195,-0.6697,12.0,-14.7,-20.28,-32.94,103.26,-26.48,-8.31,3.1,995.65,0.0,55.701347,13.169366,214.19,NaN,,,60.290325,,0 / 0,929,2020-12-05 14:33:41:902
0.8979,4.2067,9.2419,1.0326,4.3726,8.7169,-0.0414,0.1071,0.2472,0.0481,-0.2098,-0.8634,12.0,-14.34,-21.06,-31.44,102.39,-26.87,-7.71,3.1,995.64,0.0,55.701347,13.169366,214.19,NaN,,,60.290325,,0 / 0,1029,2020-12-05 14:33:42:002
0.3352,3.9075,10.1733,0.7901,4.2013,8.8258,-0.4717,-0.0066,1.5079,-0.1193,-0.1291,-0.7424,12.0,-14.34,-22.26,-32.04,116.05,-25.94,-5.74,3.1,995.63,0.0,55.701347,13.169366,214.19,NaN,,,60.290325,,0 / 0,1129,2020-12-05 14:33:42:102
-0.1796,5.004,8.3967,0.7581,4.0869,8.8822,-0.0302,0.309,-0.1407,-0.6892,0.1128,-0.9037,13.0,-12.6,-22.62,-32.28,119.55,-25.66,-5.02,3.1,995.64,0.0,55.701347,13.169366,214.19,NaN,,,60.290325,,0 / 0,1229,2020-12-05 14:33:42:202
1.0487,3.9553,8.198,1.3551,3.7595,8.9555,-0.7757,0.6891,-0.3888,-0.4687,-1.2629,0.0957,13.0,-12.84,-20.64,-32.52,123.23,-23.08,-6.88,3.1,995.64,0.0,55.701347,13.169366,214.19,NaN,,,60.290325,,0 / 0,1328,2020-12-05 14:33:42:301
2.3823,3.9386,11.8541,2.2692,3.338,8.9375,0.9319,-0.3452,3.0267,0.9607,-0.3539,2.0944,13.0,-18.0,-18.66,-31.86,122.01,-21.24,-10.51,3.1,995.65,0.0,55.701347,13.169366,214.19,NaN,,,60.290325,,0 / 0,1429,2020-12-05 14:33:42:402
1.7718,1.178,4.7263,3.4738,5.3807,7.4264,-0.9311,-3.2642,-1.3761,5.5233,-1.5549,3.9343,13.0,-22.26,-19.32,-27.3,72.67,-33.28,-25.07,3.1,995.65,0.0,55.701347,13.169366,214.19,NaN,,,60.290325,,0 / 0,1529,2020-12-05 14:33:42:502
2.7941,1.2785,-1.4054,7.1999,5.1837,4.1786,-3.5223,-4.9993,-2.6774,2.8727,-0.2983,5.6338,11.0,-35.58,-18.72,-11.1,73.37,-35.67,-48.88,3.1,995.68,0.0,55.701347,13.169366,214.19,NaN,,,60.290325,,0 / 0,1628,2020-12-05 14:33:42:601
6.024,-4.7526,7.767,8.9166,-0.8236,3.9982,-1.3244,-4.1062,3.5006,-0.1413,1.5043,6.8268,11.0,-40.5,1.8,-7.14,55.34,-5.86,-67.65,3.1,995.69,0.0,55.701347,13.169366,214.19,NaN,,,60.290325,,0 / 0,1729,2020-12-05 14:33:42:702
16.7096,0.6632,5.8516,6.1534,-5.5786,5.2139,9.6321,6.6609,0.2809,-3.5383,3.5434,3.2777,8.0,-28.92,27.18,-11.34,32.06,15.0,-62.09,0.0,995.67,0.0,55.701347,13.169366,214.19,NaN,,,60.290325,,0 / 0,1828,2020-12-05 14:33:42:801
13.8078,-17.2172,15.0456,2.1676,-8.5262,4.3331,11.6401,-8.691,10.7125,-3.3349,6.4474,0.6143,8.0,-13.98,39.42,-6.06,40.68,45.64,-41.73,0.0,995.67,0.0,55.701347,13.169366,214.19,NaN,,,60.290325,,0 / 0,1929,2020-12-05 14:33:42:902
8.8109,-10.1302,-1.5491,-0.89,-8.9468,3.9157,9.7009,-1.1834,-5.4648,-3.925,7.1976,2.2258,20.0,-8.34,41.22,-5.4,32.55,65.83,12.8,0.0,995.67,0.0,55.701347,13.169366,214.19,NaN,,,60.290325,,0 / 0,2030,2020-12-05 14:33:43:003
8.8109,-10.1302,-1.5491,-0.89,-8.9468,3.9157,9.7009,-1.1834,-5.4648,-3.925,7.1976,2.2258,20.0,-8.34,41.22,-5.4,32.55,65.83,12.8,0.0,995.67,0.0,55.701347,13.169366,214.19,NaN,,,60.290325,,0 / 0,2129,2020-12-05 14:33:43:102
-3.443,-7.4653,0.9338,-5.5573,-6.9416,4.1354,2.1143,-0.5238,-3.2017,0.5502,-0.4016,1.1622,2.0,14.16,39.96,-8.94,4.9,65.39,47.11,0.0,995.67,0.0,55.701347,13.169366,214.19,NaN,,,60.290325,,0 / 0,2229,2020-12-05 14:33:43:202
-5.265,-8.9498,6.5651,-5.3382,-6.8595,4.5411,0.0732,-2.0903,2.024,-0.6177,-0.7021,-0.3142,0.0,15.6,37.86,-10.44,348.96,44.38,49.61,0.0,995.67,0.0,55.701347,13.169366,214.19,NaN,,,60.290325,,0 / 0,2328,2020-12-05 14:33:43:301
-9.0192,-9.1629,2.8947,-4.492,-7.9612,3.5512,-4.5273,-1.2017,-0.6565,-1.4504,-0.3484,-1.0601,0.0,13.44,39.84,-6.9,344.61,49.83,50.95,0.0,995.68,0.0,55.701347,13.169366,214.19,NaN,,,60.290325,,0 / 0,2429,2020-12-05 14:33:43:402
-4.8747,-7.597,6.3281,-3.6815,-8.8201,2.1961,-1.1933,1.223,4.1319,-2.8242,0.0926,-1.7424,0.0,10.74,41.76,-1.86,336.34,64.08,59.18,0.0,995.7,0.0,55.701347,13.169366,214.19,NaN,,,60.290325,,0 / 0,2529,2020-12-05 14:33:43:502
-3.5723,-11.5572,0.5172,-3.8755,-9.0007,0.3718,0.3032,-2.5565,0.1453,-1.2573,-0.6105,0.26,0.0,6.9,42.84,11.46,325.86,65.24,68.45,0.0,995.68,0.0,55.701347,13.169366,214.19,NaN,,,60.290325,,0 / 0,2628,2020-12-05 14:33:43:601
-1.7861,-10.0775,0.8236,-3.7556,-9.0323,-0.6946,1.9695,-1.0452,1.5182,-1.4852,-1.7156,-0.8029,0.0,8.4,40.8,16.98,302.09,65.48,90.71,0.0,995.68,0.0,55.701347,13.169366,214.19,NaN,,,60.290325,,0 / 0,2729,2020-12-05 14:33:43:702
-3.3568,-16.0297,2.1932,-2.3769,-9.4381,-1.2014,-0.9799,-6.5916,3.3945,-0.7729,-0.145,-1.3435,0.0,4.5,40.8,20.82,277.06,71.38,108.55,0.0,995.69,0.0,55.701347,13.169366,214.19,NaN,,,60.290325,,0 / 0,2828,2020-12-05 14:33:43:801
-2.83,-5.605,0.656,-1.4825,-9.6215,-1.1832,-1.3475,4.0165,1.8392,1.1214,-2.4125,-0.9123,0.0,-1.08,39.48,23.58,262.13,74.76,122.45,0.0,995.7,0.0,55.701347,13.169366,214.19,NaN,,,60.290325,,0 / 0,2929,2020-12-05 14:33:43:902
-4.3265,-7.3552,-4.4557,-2.0626,-9.4533,-1.5969,-2.7832,1.7634,-2.2699,-1.2976,1.3754,1.1207,0.0,-1.92,39.54,23.94,259.34,76.67,128.44,0.0,995.71,0.0,55.701347,13.169366,214.19,NaN,,,60.290325,,0 / 0,3029,2020-12-05 14:33:44:002
-0.5483,-11.9331,-1.4821,-3.013,-9.3029,-0.7398,1.921,-2.0815,-0.4152,1.0114,-0.8982,0.6155,0.0,2.58,40.5,24.3,269.04,73.32,117.71,0.0,995.7,0.0,55.701347,13.169366,214.19,NaN,,,60.290325,,0 / 0,3128,2020-12-05 14:33:44:101
-1.9896,-6.1916,-0.1341,-2.4576,-9.4757,-0.5851,-0.5646,5.5286,1.1398,-0.0991,-0.7608,-1.2934,0.0,4.5,41.22,22.02,279.56,72.83,100.76,0.0,995.74,0.0,55.701347,13.169366,214.19,NaN,,,60.290325,,0 / 0,3229,2020-12-05 14:33:44:202
-1.0104,-9.8069,0.2203,-1.8717,-9.626,0.0812,0.654,0.8436,0.0288,0.8709,-0.6447,-0.8383,0.0,2.1,42.48,22.56,275.47,77.05,104.03,0.0,995.87,0.0,55.701347,13.169366,214.19,NaN,,,60.290325,,0 / 0,3328,2020-12-05 14:33:44:301
-0.407,-14.6386,1.7023,-1.7831,-9.6381,0.3118,1.6631,-4.236,0.9655,-0.1419,-0.6606,0.4744,0.0,1.68,43.32,22.26,293.06,79.91,79.95,0.0,995.82,0.0,55.701347,13.169366,214.19,NaN,,,60.290325,,0 / 0,3429,2020-12-05 14:33:44:402
-2.3512,-18.2468,-1.7191,-1.939,-9.5895,0.6723,-1.6234,-11.602,-3.0964,0.6296,0.2184,-0.4346,0.0,6.42,44.34,21.96,292.28,78.15,79.36,0.0,995.79,0.0,55.701347,13.169366,214.19,NaN,,,60.290325,,0 / 0,3529,2020-12-05 14:33:44:502
-0.5459,-10.4797,0.3472,-1.6308,-9.6686,0.1684,0.9486,-0.7895,-1.0477,-0.6837,-0.3454,0.0492,0.0,6.66,43.98,23.76,284.71,80.07,76.13,0.0,995.76,0.0,55.701347,13.169366,214.19,NaN,,,60.290325,,0 / 0,3628,2020-12-05 14:33:44:601
-3.2849,-7.2211,2.4996,-1.8423,-9.5787,-1.0125,-1.7693,1.6594,1.8608,-1.0741,-1.0491,0.2343,0.0,8.04,41.58,28.5,244.35,79.18,114.5,0.0,995.76,0.0,55.701347,13.169366,214.19,NaN,,,60.290325,,0 / 0,3729,2020-12-05 14:33:44:702
-3.5052,-8.9953,-0.6273,-2.2872,-9.4688,-1.1319,-1.1477,0.5681,0.4049,-0.4186,0.6173,0.3852,0.0,10.68,40.32,31.26,240.99,76.13,115.57,0.0,995.78,0.0,55.701347,13.169366,214.19,NaN,,,60.290325,,0 / 0,3829,2020-12-05 14:33:44:802
-2.4374,-10.2762,-0.8907,-2.5025,-9.3478,-1.5893,0.068,-0.9424,0.7743,-0.6825,0.5776,0.1671,0.0,11.64,39.6,32.64,239.17,73.33,118.77,0.0,995.78,0.0,55.701347,13.169366,214.19,NaN,,,60.290325,,0 / 0,3929,2020-12-05 14:33:44:902
-2.1309,-9.7639,-0.5004,-2.5446,-9.2378,-2.0875,0.8142,-0.2765,1.9694,-0.3044,0.847,0.2649,0.0,10.08,38.16,36.9,232.35,70.96,127.88,0.0,995.73,0.0,55.701347,13.169366,214.19,NaN,,,60.290325,,0 / 0,4029,2020-12-05 14:33:45:002
-0.8691,-10.9777,-1.0367,-2.4589,-9.2482,-2.1435,1.1096,-1.0154,1.398,-0.057,0.6027,0.0932,0.0,8.64,36.96,37.86,232.19,70.57,131.08,0.0,995.73,0.0,55.701347,13.169366,214.19,NaN,,,60.290325,,0 / 0,4128,2020-12-05 14:33:45:101
-4.4725,-5.9593,-3.8237,-2.38,-9.4202,-1.3291,-2.0168,1.5994,-2.467,1.1049,0.0419,0.056,0.0,9.42,38.58,36.9,234.34,72.09,129.37,0.0,995.73,0.0,55.701347,13.169366,214.19,NaN,,,60.290325,,0 / 0,4229,2020-12-05 14:33:45:202
1.5299,-13.7838,-2.8228,-2.4988,-9.48,-0.2375,4.0287,-4.3039,-2.5853,1.2802,-0.2153,-0.4266,0.0,9.06,41.22,33.6,241.52,73.86,119.18,0.0,995.72,0.0,55.701347,13.169366,214.19,NaN,,,60.290325,,0 / 0,4329,2020-12-05 14:33:45:302
-1.3983,-7.1014,1.075,-1.681,-9.6614,-0.0389,0.5174,2.8904,0.8314,0.3474,-0.8243,-0.5512,0.0,9.06,44.64,26.76,270.22,77.71,91.49,0.0,995.71,0.0,55.701347,13.169366,214.19,NaN,,,60.290325,,0 / 0,4429,2020-12-05 14:33:45:402
-1.2666,-9.6441,-0.091,-1.4754,-9.6874,0.3843,0.2089,0.0433,-0.4752,-0.0399,-0.85,0.2203,0.0,8.1,46.98,25.68,272.78,81.03,85.6,0.0,995.73,0.0,55.701347,13.169366,214.19,NaN,,,60.290325,,0 / 0,4529,2020-12-05 14:33:45:502
-0.3591,-9.9817,2.4565,-1.8119,-9.6363,0.1695,0.8758,-1.047,2.2535,-0.1559,-0.3979,0.1812,0.0,11.88,45.66,25.02,270.07,79.53,83.91,0.0,995.72,0.0,55.701347,13.169366,214.19,NaN,,,60.290325,,0 / 0,4628,2020-12-05 14:33:45:601
-3.4909,-7.6114,-1.19,-1.5195,-9.664,0.6849,-3.6737,-6.2029,-2.3441,-0.6636,-0.0161,-0.3619,0.0,13.14,45.78,23.22,281.71,80.21,65.74,0.0,995.74,0.0,55.701347,13.169366,214.19,NaN,,,60.290325,,0 / 0,4728,2020-12-05 14:33:45:701
-2.2865,-8.1238,-1.9394,-1.2966,-9.717,-0.2623,0.9658,2.3993,-1.0924,-0.5872,-0.4816,-0.1255,0.0,12.84,45.18,24.18,251.82,82.21,92.25,0.0,995.75,0.0,55.701347,13.169366,214.19,NaN,,,60.290325,,0 / 0,4828,2020-12-05 14:33:45:801
-2.8827,-7.4893,-0.5435,-1.6821,-9.6164,-0.9301,-1.217,1.9432,0.4882,-0.3557,0.5001,0.2093,0.0,13.08,43.68,26.76,232.84,81.59,111.13,0.0,995.73,0.0,55.701347,13.169366,214.19,NaN,,,60.290325,,0 / 0,4928,2020-12-05 14:33:45:901
-1.3216,-10.724,-1.6257,-1.9986,-9.5212,-1.2338,0.5982,-1.1754,-0.5259,-0.5976,0.5758,0.2197,0.0,12.48,42.18,28.62,231.44,76.14,121.69,0.0,995.74,0.0,55.701347,13.169366,214.19,NaN,,,60.290325,,0 / 0,5029,2020-12-05 14:33:46:002
-1.6832,-9.0671,-0.1077,-2.0672,-9.3668,-2.0395,0.3844,0.3058,1.903,-0.3746,0.825,0.191,0.0,11.7,40.44,31.68,221.81,74.03,129.99,0.0,995.7,0.0,55.701347,13.169366,214.19,NaN,,,60.290325,,0 / 0,5129,2020-12-05 14:33:46:102
0.1053,-10.0967,0.1748,-2.0019,-9.3949,-1.9744,2.1154,-0.7076,2.1687,-0.0765,0.2856,0.1904,0.0,11.28,39.54,33.66,219.23,72.77,134.61,0.0,995.71,0.0,55.701347,13.169366,214.19,NaN,,,60.290325,,0 / 0,5228,2020-12-05 14:33:46:201
-4.4055,-7.8412,-3.9745,-1.9914,-9.5179,-1.2706,-2.3831,1.6961,-2.9167,1.1959,-0.2342,0.2154,0.0,10.98,40.14,32.52,232.86,76.06,122.54,0.0,995.71,0.0,55.701347,13.169366,214.19,NaN,,,60.290325,,0 / 0,5329,2020-12-05 14:33:46:302
0.4645,-13.032,-2.5691,-2.354,-9.5181,-0.1861,1.9804,-3.162,-1.77,1.246,-0.4346,-0.0027,0.0,12.48,43.44,26.34,246.24,76.51,108.89,0.0,995.69,0.0,55.701347,13.169366,214.19,NaN,,,60.290325,,0 / 0,5429,2020-12-05 14:33:46:402
-1.6784,-8.0328,0.0886,-1.8429,-9.6318,0.0527,0.1645,1.599,0.0359,0.3627,-0.4578,-0.4407,0.0,12.36,46.14,21.12,263.2,79.16,88.36,0.0,995.71,0.0,55.701347,13.169366,214.19,NaN,,,60.290325,,0 / 0,5529,2020-12-05 14:33:46:502
-1.6066,-9.1988,-0.1939,-1.6676,-9.6597,0.2815,0.0611,0.4609,-0.4754,-0.0863,-0.2819,0.2692,0.0,11.94,46.38,19.62,270.17,80.37,81.85,0.0,995.71,0.0,55.701347,13.169366,214.19,NaN,,,60.290325,,0 / 0,5629,2020-12-05 14:33:46:602
-0.8667,-10.2307,1.2666,-2.0207,-9.5961,0.03,1.324,-0.6753,1.2749,-0.1449,-0.1432,0.2991,0.0,12.24,45.42,20.7,263.43,78.26,89.56,0.0,995.71,0.0,55.701347,13.169366,214.19,NaN,,,60.290325,,0 / 0,5729,2020-12-05 14:33:46:702
-5.0615,-19.5421,-2.186,-1.7855,-9.6277,0.5389,-3.2759,-9.9144,-2.7249,-0.5542,0.4463,-0.3435,0.0,12.42,45.18,20.4,264.42,78.34,85.91,0.0,995.71,0.0,55.701347,13.169366,214.19,NaN,,,60.290325,,0 / 0,5829,2020-12-05 14:33:46:802
-0.431,-8.3704,-0.735,-1.6917,-9.6594,0.063,1.1458,0.8078,-0.5083,-0.2891,0.3644,-0.2434,0.0,10.56,44.58,21.36,269.47,80.02,82.42,0.0,995.72,0.0,55.701347,13.169366,214.19,NaN,,,60.290325,,0 / 0,5929,2020-12-05 14:33:46:902
-2.9378,-8.0256,0.2873,-1.8169,-9.5962,-0.8845,-1.1209,1.5706,1.1718,-0.6355,0.7566,0.1995,0.0,8.64,44.04,23.7,253.01,80.66,99.71,0.0,995.71,0.0,55.701347,13.169366,214.19,NaN,,,60.290325,,0 / 0,6029,2020-12-05 14:33:47:002
-2.004,-10.7862,-2.4589,-2.14,-9.5018,-1.1434,0.1359,-1.2845,-1.3155,-0.1376,1.2881,0.2142,0.0,7.56,42.78,25.92,247.22,76.35,116.91,0.0,995.71,0.0,55.701347,13.169366,214.19,NaN,,,60.290325,,0 / 0,6129,2020-12-05 14:33:47:102
-1.4509,-9.7423,-0.5004,-2.1616,-9.4037,-1.7517,0.7106,-0.3386,1.2513,-0.33,1.1354,0.2643,0.0,5.58,42.54,29.94,242.76,74.04,125.91,0.0,995.72,0.0,55.701347,13.169366,214.19,NaN,,,60.290325,,0 / 0,6229,2020-12-05 14:33:47:202
0.3328,-9.2156,0.1628,-1.9651,-9.4048,-1.9643,2.2979,0.1892,2.1271,-0.0637,0.9209,0.1354,0.0,4.26,40.44,31.2,238.98,73.12,133.99,0.0,995.7,0.0,55.701347,13.169366,214.19,NaN,,,60.290325,,0 / 0,6328,2020-12-05 14:33:47:301
-2.2458,-11.2842,-2.7965,-1.7941,-9.5121,-1.5718,-0.4517,-1.7721,-1.2247,0.7408,0.1293,0.3651,0.0,2.1,40.26,31.92,239.67,74.2,135.73,0.0,995.71,0.0,55.701347,13.169366,214.19,NaN,,,60.290325,,0 / 0,6429,2020-12-05 14:33:47:402
-2.8013,-7.791,-3.2442,-1.965,-9.5682,-0.8703,-0.1718,1.0408,-1.7196,1.0163,0.3357,0.0767,0.0,3.48,41.88,29.22,258.97,77.34,113.89,0.0,995.71,0.0,55.701347,13.169366,214.19,NaN,,,60.290325,,0 / 0,6529,2020-12-05 14:33:47:502
-1.5275,-8.3847,-1.1277,-1.6725,-9.6592,-0.2706,0.7863,0.8281,-1.6893,0.6645,0.3553,-0.4498,0.0,3.9,44.22,24.84,269.92,77.61,104.58,0.0,995.7,0.0,55.701347,13.169366,214.19,NaN,,,60.290325,,0 / 0,6629,2020-12-05 14:33:47:602
-0.9074,-10.3672,0.158,-1.3229,-9.7167,0.0761,0.1976,-0.4829,0.1369,0.3254,-0.2409,-0.1267,0.0,2.04,45.54,22.92,283.51,82.23,86.71,0.0,995.72,0.0,55.701347,13.169366,214.19,NaN,,,60.290325,,0 / 0,6728,2020-12-05 14:33:47:701
-0.407,-9.2204,0.7518,-1.3184,-9.7175,0.0479,0.7302,0.406,0.4892,-0.5029,-0.5531,0.3046,0.0,2.7,44.88,22.08,285.93,82.47,83.74,0.0,995.72,0.0,55.701347,13.169366,214.19,NaN,,,60.290325,,0 / 0,6828,2020-12-05 14:33:47:801
-0.1532,-9.8285,1.5299,-1.3172,-9.7161,0.1805,1.164,-0.1124,1.3495,0.2173,-0.5238,-0.0735,0.0,5.52,44.52,23.4,272.67,81.82,88.46,0.0,995.72,0.0,55.701347,13.169366,214.19,NaN,,,60.290325,,0 / 0,6929,2020-12-05 14:33:47:902
-3.4956,-8.7223,-0.4453,-1.0081,-9.7471,0.3844,-2.4875,1.0248,-0.8297,-0.6752,-0.2519,-0.4712,0.0,7.56,44.82,23.04,283.09,82.48,73.47,0.0,995.73,0.0,55.701347,13.169366,214.19,NaN,,,60.290325,,0 / 0,7029,2020-12-05 14:33:48:002
-2.1381,-9.5651,-2.4757,-0.9297,-9.761,-0.1673,-0.9283,0.0546,-1.7194,-0.8425,-0.5946,-0.1688,0.0,8.34,42.42,26.94,251.23,84.47,100.2,0.0,995.72,0.0,55.701347,13.169366,214.19,NaN,,,60.290325,,0 / 0,7129,2020-12-05 14:33:48:102
-2.344,-8.538,-0.2777,-1.3687,-9.6602,-0.9886,-0.8651,1.5661,1.951,-0.2915,-0.3692,0.0505,0.0,10.26,40.98,29.46,223.33,82.36,124.94,0.0,995.72,0.0,55.701347,13.169366,214.19,NaN,,,60.290325,,0 / 0,7229,2020-12-05 14:33:48:202
-1.7837,-9.7231,-1.5802,-1.6556,-9.5853,-1.2452,-0.135,0.054,-0.2532,-0.6831,-0.3845,0.0627,0.0,14.04,40.5,30.42,223.51,79.51,124.17,0.0,995.75,0.0,55.701347,13.169366,214.19,NaN,,,60.290325,,0 / 0,7329,2020-12-05 14:33:48:302
-2.5427,-9.2299,-0.2897,-1.7794,-9.47,-1.8231,-0.4895,0.2134,1.4833,-0.5524,-0.029,0.0682,0.0,17.16,38.28,33.72,206.43,75.78,134.02,0.0,995.72,0.0,55.701347,13.169366,214.19,NaN,,,60.290325,,0 / 0,7429,2020-12-05 14:33:48:402
0.3448,-9.3568,-0.9601,-1.7766,-9.4335,-2.0057,1.6396,-0.0901,0.949,-0.2775,-0.0118,-0.1493,0.0,17.58,37.32,34.26,204.48,74.04,136.2,0.0,995.7,0.0,55.701347,13.169366,214.19,NaN,,,60.290325,,0 / 0,7529,2020-12-05 14:33:48:502
-3.1078,-10.9706,-1.0822,-1.5409,-9.5201,-1.7783,-1.6335,-1.169,0.544,0.4537,-0.7736,-0.1047,0.0,19.02,37.32,34.38,193.22,75.33,141.16,0.0,995.71,0.0,55.701347,13.169366,214.19,NaN,,,60.290325,,0 / 0,7628,2020-12-05 14:33:48:601
-2.8228,-6.8668,-1.2977,-1.5548,-9.6222,-1.0796,-1.2381,2.7618,-0.323,1.0908,-0.7779,-0.1865,0.0,21.96,38.88,30.78,194.81,76.98,135.56,0.0,995.71,0.0,55.701347,13.169366,214.19,NaN,,,60.290325,,0 / 0,7729,2020-12-05 14:33:48:702
-0.0599,-10.0536,-0.2203,-1.5215,-9.6878,0.0329,2.3266,-2.2568,-2.5858,0.0365,-1.4462,-0.3918,0.0,24.96,41.16,23.52,232.23,80.35,91.1,0.0,995.72,0.0,55.701347,13.169366,214.19,NaN,,,60.290325,,0 / 0,7828,2020-12-05 14:33:48:801
-1.8723,-10.202,0.4932,-1.1579,-9.7355,0.22,-0.1178,-0.1802,0.4355,0.0896,-2.1542,-0.0198,0.0,30.42,40.86,16.86,221.55,82.07,87.96,0.0,995.72,0.0,55.701347,13.169366,214.19,NaN,,,60.290325,,0 / 0,7929,2020-12-05 14:33:48:902
-1.0439,-9.5244,0.3424,-1.203,-9.7299,0.2266,0.35,0.1726,0.597,-0.7998,-2.3728,0.1708,0.0,36.78,39.54,5.22,206.73,82.98,74.53,0.0,995.71,0.0,55.701347,13.169366,214.19,NaN,,,60.290325,,0 / 0,8029,2020-12-05 14:33:49:002
-1.2881,-8.1717,1.0367,-1.1227,-9.7419,0.0714,-0.1562,1.5693,0.9893,-0.1779,-2.1945,-0.079,0.0,41.46,34.74,-11.22,174.39,82.74,90.74,0.0,995.72,0.0,55.701347,13.169366,214.19,NaN,,,60.290325,,0 / 0,8129,2020-12-05 14:33:49:102
-4.8484,-12.3784,-2.921,-1.234,-9.7287,0.0036,-3.6144,-2.6497,-2.9246,-0.8847,-1.7937,-0.0118,0.0,31.38,33.78,-37.44,125.76,82.77,89.83,0.0,995.74,0.0,55.701347,13.169366,214.19,NaN,,,60.290325,,0 / 0,8229,2020-12-05 14:33:49:202
-2.0734,-9.8141,0.2873,-1.4164,-9.6884,-0.5471,-0.657,-0.1258,0.8344,-0.6654,-2.112,-0.1523,0.0,8.46,37.5,-46.86,84.46,81.57,109.96,0.0,995.74,0.0,55.701347,13.169366,214.19,NaN,,,60.290325,,0 / 0,8329,2020-12-05 14:33:49:302
-2.4254,-9.5388,1.1804,-1.7929,-9.6207,-0.6309,-0.6325,0.0819,1.8113,-0.2726,-1.6862,0.0492,0.0,-12.42,41.34,-36.0,55.89,80.86,112.36,0.0,995.74,0.0,55.701347,13.169366,214.19,NaN,,,60.290325,,0 / 0,8428,2020-12-05 14:33:49:401
-3.1796,-9.9386,-0.3424,-2.0003,-9.5949,-0.3257,-1.1793,-0.3437,-0.0167,-0.4937,-1.8273,0.0352,0.0,-16.14,42.24,-17.1,26.82,78.32,100.89,0.0,995.73,0.0,55.701347,13.169366,214.19,NaN,,,60.290325,,0 / 0,8529,2020-12-05 14:33:49:502
-3.2466,-9.182,0.6034,-2.1145,-9.5678,-0.3956,-1.1322,0.3857,0.999,-0.407,-1.4162,-0.0986,0.0,-9.72,42.12,-6.0,15.05,77.75,99.72,0.0,995.7,0.0,55.701347,13.169366,214.19,NaN,,,60.290325,,0 / 0,8629,2020-12-05 14:33:49:602
-3.194,-9.4119,0.261,-2.2933,-9.5214,-0.5036,-0.9006,0.1095,0.7645,-0.6171,-1.3955,-0.0613,0.0,-5.28,42.9,-2.94,7.35,76.41,101.02,0.0,995.69,0.0,55.701347,13.169366,214.19,NaN,,,60.290325,,0 / 0,8729,2020-12-05 14:33:49:702
-3.4166,-9.3281,0.5004,-2.3481,-9.4975,-0.6744,-1.0422,0.1957,1.2227,-0.5328,-1.1817,-0.2195,0.0,-4.98,43.2,-2.04,6.23,75.98,103.72,0.0,995.69,0.0,55.701347,13.169366,214.19,NaN,,,60.290325,,0 / 0,8830,2020-12-05 14:33:49:803
-3.4765,-9.7279,-0.7303,-2.3497,-9.5016,-0.606,-1.1268,-0.2263,-0.1242,-0.2195,-1.3148,-0.2702,0.0,-4.08,43.62,0.06,355.86,75.54,105.44,0.0,995.69,0.0,55.701347,13.169366,214.19,NaN,,,60.290325,,0 / 0,8929,2020-12-05 14:33:49:902
-1.2977,-8.8397,-1.2714,-2.041,-9.5837,-0.3961,0.9756,0.2556,-1.0094,-0.0313,-1.5347,-0.6838,0.0,-4.44,44.28,-1.86,356.39,75.99,103.16,0.0,995.69,0.0,55.701347,13.169366,214.19,NaN,,,60.290325,,0 / 0,9028,2020-12-05 14:33:50:001
-2.5212,-10.5492,-0.6728,-1.5744,-9.6794,-0.0124,-0.6882,0.6339,-0.7346,0.5863,-1.7229,-0.5195,0.0,-5.64,42.96,-2.94,12.94,80.76,90.45,0.0,995.71,0.0,55.701347,13.169366,214.19,NaN,,,60.290325,,0 / 0,9129,2020-12-05 14:33:50:102
-1.7933,-9.048,0.4238,-1.2649,-9.7148,0.4397,-0.5379,0.7721,0.1684,0.1642,-1.4901,-0.2226,0.0,-6.06,41.52,-6.48,35.62,81.72,75.04,0.0,995.73,0.0,55.701347,13.169366,214.19,NaN,,,60.290325,,0 / 0,9229,2020-12-05 14:33:50:202
-1.518,-9.4933,0.4334,-1.0505,-9.7186,0.7841,-0.4674,0.2253,-0.3507,0.2692,-0.9336,-0.225,0.0,-6.6,41.28,-6.9,54.88,82.32,53.26,0.0,995.73,0.0,55.701347,13.169366,214.19,NaN,,,60.290325,,0 / 0,9329,2020-12-05 14:33:50:302
-0.9194,-9.546,1.099,-1.0272,-9.7129,0.8799,-0.2561,0.4255,0.0036,-0.3496,-0.7027,0.2007,0.0,-5.58,41.16,-8.58,67.66,82.1,47.2,0.0,995.74,0.0,55.701347,13.169366,214.19,NaN,,,60.290325,,0 / 0,9428,2020-12-05 14:33:50:401
-0.1987,-9.4981,1.7742,-1.1442,-9.7181,0.6471,0.9455,0.22,1.127,-0.3044,-0.5366,0.1678,0.0,-4.92,41.16,-8.1,59.48,82.26,58.26,0.0,995.74,0.0,55.701347,13.169366,214.19,NaN,,,60.290325,,0 / 0,9528,2020-12-05 14:33:50:501
-3.9745,-18.333,-2.4948,-1.1419,-9.7012,0.8683,-2.8326,-8.6318,-3.3631,0.279,-0.1523,-0.3985,0.0,-3.78,42.36,-9.24,59.56,82.1,60.02,0.0,995.75,0.0,55.701347,13.169366,214.19,NaN,,,60.290325,,0 / 0,9628,2020-12-05 14:33:50:601
-1.9442,-8.9378,-2.3272,-1.2024,-9.7298,0.2335,-0.2993,0.5228,-0.2606,-0.4675,-0.0583,0.0425,0.0,-2.4,42.24,-8.52,68.7,82.99,67.49,0.0,995.78,0.0,55.701347,13.169366,214.19,NaN,,,60.290325,,0 / 0,9728,2020-12-05 14:33:50:701
-1.3432,-8.4039,0.5746,-1.3494,-9.6946,-0.603,-0.1511,1.2827,1.0204,-0.575,-0.6026,-0.0351,0.0,-1.08,42.72,-5.94,51.59,82.64,89.83,0.0,995.76,0.0,55.701347,13.169366,214.19,NaN,,,60.290325,,0 / 0,9829,2020-12-05 14:33:50:802
-3.9577,-9.1701,-1.0655,-1.5806,-9.6375,-0.8888,-1.7362,0.8552,0.4325,-0.3813,0.4072,0.2936,0.0,-1.02,44.1,-5.52,23.62,80.53,118.66,0.0,995.77,0.0,55.701347,13.169366,214.19,NaN,,,60.290325,,0 / 0,9929,2020-12-05 14:33:50:902
-1.7382,-10.1014,-1.3049,-1.9282,-9.5473,-1.141,0.1899,-0.5542,-0.1639,-0.338,0.6131,0.2197,0.0,1.62,44.34,-4.74,24.53,78.13,119.55,0.0,995.76,0.0,55.701347,13.169366,214.19,NaN,,,60.290325,,0 / 0,10029,2020-12-05 14:33:51:002
-1.7885,-9.7639,-0.5339,-2.0672,-9.4405,-1.6653,0.2787,-0.3233,1.1313,-0.4076,0.7694,0.1787,0.0,3.36,44.94,-3.48,20.65,74.89,126.69,0.0,995.72,0.0,55.701347,13.169366,214.19,NaN,,,60.290325,,0 / 0,10128,2020-12-05 14:33:51:101
-1.3384,-9.716,-0.4405,-1.9188,-9.4598,-1.7319,0.5804,-0.2561,1.2913,-0.013,0.5239,0.026,0.0,5.58,45.12,-2.58,27.47,73.99,130.76,0.0,995.71,0.0,55.701347,13.169366,214.19,NaN,,,60.290325,,0 / 0,10228,2020-12-05 14:33:51:201
-2.8396,-10.2643,-2.5834,-1.9342,-9.5347,-1.2325,-1.1713,0.0023,-1.7713,0.7701,-0.1383,0.001,0.0,7.26,45.84,-3.0,40.89,75.78,127.01,0.0,995.72,0.0,55.701347,13.169366,214.19,NaN,,,60.290325,,0 / 0,10329,2020-12-05 14:33:51:302
-0.0168,-11.1837,-1.834,-2.0253,-9.5753,-0.6177,1.3604,-1.0032,-1.1244,1.18,-0.506,-0.2018,0.0,8.16,45.6,-7.32,52.88,77.2,118.14,0.0,995.73,0.0,55.701347,13.169366,214.19,NaN,,,60.290325,,0 / 0,10428,2020-12-05 14:33:51:401
-0.6967,-8.1621,0.3903,-1.6384,-9.6677,-0.1428,1.1491,1.4889,-0.0789,0.4189,-0.6734,-0.4938,0.0,8.04,44.7,-12.24,82.27,79.06,94.88,0.0,995.73,0.0,55.701347,13.169366,214.19,NaN,,,60.290325,,0 / 0,10529,2020-12-05 14:33:51:502
-1.1253,-9.795,-0.5842,-1.0977,-9.7388,0.3481,-0.1275,-0.1835,-0.6933,0.3248,-0.7968,-0.1065,0.0,4.5,44.34,-15.78,100.8,83.2,78.56,0.0,995.74,0.0,55.701347,13.169366,214.19,NaN,,,60.290325,,0 / 0,10628,2020-12-05 14:33:51:601
-0.5866,-9.4023,1.2953,-1.2668,-9.7231,0.1609,0.7271,0.1196,1.6713,-0.3642,-0.7779,0.3168,0.0,5.28,44.34,-16.38,96.67,82.93,78.43,0.0,995.73,0.0,55.701347,13.169366,214.19,NaN,,,60.290325,,0 / 0,10729,2020-12-05 14:33:51:702
0.5387,-10.9275,1.2522,-1.2855,-9.7124,0.4335,1.8312,-1.2206,0.7267,0.2289,-0.7192,0.1274,0.0,5.28,44.1,-15.78,105.14,82.05,71.37,0.0,995.73,0.0,55.701347,13.169366,214.19,NaN,,,60.290325,,0 / 0,10828,2020-12-05 14:33:51:801
-2.6409,-8.0088,0.5818,-1.0764,-9.7383,0.4212,-2.8526,1.6863,0.1821,-0.947,-0.4095,-0.5225,0.0,4.08,44.4,-16.14,110.37,81.74,62.21,0.0,995.74,0.0,55.701347,13.169366,214.19,NaN,,,60.290325,,0 / 0,10930,2020-12-05 14:33:51:903
-2.8923,-9.2108,-2.8612,-1.1234,-9.7267,-0.5468,-2.9325,-0.4561,-0.9928,-1.0582,-0.7095,0.0737,0.0,3.18,46.5,-13.26,77.79,83.98,90.84,0.0,995.73,0.0,55.701347,13.169366,214.19,NaN,,,60.290325,,0 / 0,11029,2020-12-05 14:33:52:002
-3.3448,-8.186,-1.3456,-1.4631,-9.635,-1.0935,-1.5369,1.7626,-0.2473,-0.429,0.1183,0.147,0.0,2.16,47.64,-9.3,35.42,80.09,126.06,0.0,995.73,0.0,55.701347,13.169366,214.19,NaN,,,60.290325,,0 / 0,11128,2020-12-05 14:33:52:101
-1.9202,-10.1565,-1.494,-1.8497,-9.528,-1.402,0.224,-0.4489,0.109,-0.4662,0.2685,0.1995,0.0,2.7,48.42,-7.32,30.93,77.21,126.67,0.0,995.74,0.0,55.701347,13.169366,214.19,NaN,,,60.290325,,0 / 0,11228,2020-12-05 14:33:52:201
-1.8723,-10.1445,-0.8859,-2.0061,-9.3873,-2.0058,0.287,-0.7165,1.4168,-0.4992,0.5263,0.2172,0.0,4.5,48.54,-4.08,27.74,75.42,129.51,0.0,995.7,0.0,55.701347,13.169366,214.19,NaN,,,60.290325,,0 / 0,11328,2020-12-05 14:33:52:301
-0.2442,-9.0025,-0.4956,-1.9717,-9.3733,-2.1032,1.2395,-0.3175,1.8397,-0.1779,0.3003,0.0609,0.0,6.36,48.6,-1.74,25.47,72.69,136.06,0.0,995.7,0.0,55.701347,13.169366,214.19,NaN,,,60.290325,,0 / 0,11429,2020-12-05 14:33:52:402
-3.8308,-9.1868,-3.1557,-1.8935,-9.4831,-1.6296,-1.5841,-0.5644,-1.5252,0.8325,-0.3301,-0.0949,0.0,7.92,48.78,-1.26,25.21,73.41,137.06,0.0,995.7,0.0,55.701347,13.169366,214.19,NaN,,,60.290325,,0 / 0,11529,2020-12-05 14:33:52:502
-1.676,-9.7064,-1.1157,-2.037,-9.5511,-0.8931,0.398,-0.1537,-0.3324,1.2906,-0.6777,0.0938,0.0,7.08,48.42,-6.24,49.92,76.89,113.67,0.0,995.7,0.0,55.701347,13.169366,214.19,NaN,,,60.290325,,0 / 0,11628,2020-12-05 14:33:52:601
-0.2179,-9.0288,-1.2402,-1.6491,-9.6668,-0.0616,1.5849,0.6104,-1.1606,0.3621,-0.8903,-0.5506,0.0,5.94,47.1,-11.16,68.14,77.81,95.52,0.0,995.71,0.0,55.701347,13.169366,214.19,NaN,,,60.290325,,0 / 0,11728,2020-12-05 14:33:52:701
-1.3767,-9.6609,-0.0503,-1.2541,-9.7213,0.3068,-0.3484,0.0431,-0.1323,0.4006,-0.7345,-0.0882,0.0,3.12,47.1,-14.82,82.87,82.24,83.96,0.0,995.72,0.0,55.701347,13.169366,214.19,NaN,,,60.290325,,0 / 0,11828,2020-12-05 14:33:52:801
-0.3783,-9.4047,1.7454,-1.4231,-9.6995,0.2557,1.0817,0.2903,1.5318,-0.567,-0.7443,0.4329,0.0,1.08,46.08,-15.42,88.71,82.3,72.04,0.0,995.7,0.0,55.701347,13.169366,214.19,NaN,,,60.290325,,0 / 0,11929,2020-12-05 14:33:52:902
-0.929,-10.0176,1.858,-1.545,-9.676,0.3982,0.6252,-0.3401,1.5418,0.1471,-0.5384,0.1116,0.0,2.46,47.4,-14.46,76.49,80.71,79.91,0.0,995.73,0.0,55.701347,13.169366,214.19,NaN,,,60.290325,,0 / 0,12029,2020-12-05 14:33:53:002
-0.4597,-7.9969,-0.8356,-1.3454,-9.7102,0.2687,0.8872,1.7148,-1.034,-0.5078,0.1903,-0.2611,0.0,1.32,46.32,-15.36,85.21,80.39,70.84,0.0,995.74,0.0,55.701347,13.169366,214.19,NaN,,,60.290325,,0 / 0,12129,2020-12-05 14:33:53:102
-5.0136,-10.3097,-2.66,-1.2336,-9.7221,-0.3586,-3.7687,-0.5933,-2.2001,-0.5915,-0.3069,-0.2208,0.0,1.56,48.48,-12.96,58.53,82.47,106.21,0.0,995.72,0.0,55.701347,13.169366,214.19,NaN,,,60.290325,,0 / 0,12228,2020-12-05 14:33:53:201
-3.0168,-7.0942,-0.2131,-1.78,-9.5745,-1.1538,-1.2672,2.4873,0.9287,-0.0496,0.9057,0.2233,0.0,0.66,50.16,-10.8,34.84,79.41,122.28,0.0,995.73,0.0,55.701347,13.169366,214.19,NaN,,,60.290325,,0 / 0,12328,2020-12-05 14:33:53:301
-1.1708,-10.779,-1.0846,-2.0218,-9.4796,-1.4897,0.8409,-1.2869,0.3377,-0.5683,0.745,0.227,0.0,3.54,50.34,-7.86,34.15,76.88,122.39,0.0,995.73,0.0,55.701347,13.169366,214.19,NaN,,,60.290325,,0 / 0,12428,2020-12-05 14:33:53:401
-0.8452,-8.526,0.8811,-2.0277,-9.366,-2.0827,0.7273,0.141,2.6939,-0.4876,0.7554,0.2117,0.0,5.7,51.0,-5.52,29.13,72.76,135.77,0.0,995.69,0.0,55.701347,13.169366,214.19,NaN,,,60.290325,,0 / 0,12528,2020-12-05 14:33:53:501
-1.0343,-10.3552,-0.2538,-1.8445,-9.4359,-1.9316,0.9999,-1.3532,2.1027,0.2008,0.1965,0.0529,0.0,6.48,51.18,-3.36,27.42,73.06,136.65,0.0,995.72,0.0,55.701347,13.169366,214.19,NaN,,,60.290325,,0 / 0,12629,2020-12-05 14:33:53:602
-3.9122,-8.7966,-3.443,-1.8415,-9.5747,-1.051,-2.0726,0.7652,-2.2772,1.2723,-0.1316,-8.0E-4,0.0,7.14,50.64,-4.8,31.6,74.2,136.32,0.0,995.72,0.0,55.701347,13.169366,214.19,NaN,,,60.290325,,0 / 0,12728,2020-12-05 14:33:53:701
1.6185,-12.7615,-2.502,-2.106,-9.5742,-0.2615,3.6924,-3.1772,-2.3968,1.1324,-0.6307,-0.0864,0.0,7.62,49.02,-13.26,67.16,77.61,104.56,0.0,995.73,0.0,55.701347,13.169366,214.19,NaN,,,60.290325,,0 / 0,12828,2020-12-05 14:33:53:801
-1.7885,-7.6425,-0.0551,-1.3629,-9.7107,0.1177,-0.3691,2.0605,-0.1431,0.4348,-0.5842,-0.5549,0.0,6.3,47.94,-17.22,83.89,79.22,89.0,0.0,995.72,0.0,55.701347,13.169366,214.19,NaN,,,60.290325,,0 / 0,12929,2020-12-05 14:33:53:902
-1.0176,-9.2802,0.0383,-1.2696,-9.7187,0.3241,0.2333,0.4409,-0.2874,0.0933,-0.5885,0.1073,0.0,2.64,46.74,-19.92,94.37,82.57,76.54,0.0,995.71,0.0,55.701347,13.169366,214.19,NaN,,,60.290325,,0 / 0,13028,2020-12-05 14:33:54:001
-0.8787,-11.3082,1.7287,-1.5194,-9.6876,0.1105,0.6407,-1.6212,1.5699,0.0799,-0.291,0.1305,0.0,2.7,48.18,-19.38,89.76,81.89,79.42,0.0,995.71,0.0,55.701347,13.169366,214.19,NaN,,,60.290325,,0 / 0,13128,2020-12-05 14:33:54:101
-6.4669,-18.1678,-2.3177,-1.3699,-9.7014,0.4194,-5.0522,-8.4763,-2.8112,0.0884,0.1207,-0.558,0.0,3.0,46.74,-20.34,93.57,80.81,72.87,0.0,995.71,0.0,55.701347,13.169366,214.19,NaN,,,60.290325,,0 / 0,13230,2020-12-05 14:33:54:203
-0.0168,-7.767,-1.7861,-1.3223,-9.712,-0.3138,1.3074,1.9466,-1.5375,-0.567,0.2099,0.0291,0.0,2.88,47.52,-18.24,86.26,82.42,84.31,0.0,995.73,0.0,55.701347,13.169366,214.19,NaN,,,60.290325,,0 / 0,13329,2020-12-05 14:33:54:302
-2.2913,-7.6018,-0.0215,-1.4486,-9.6345,-1.1171,-0.7443,2.0056,1.1928,-0.8022,-0.2819,0.1836,0.0,3.24,47.88,-14.7,41.28,79.25,127.64,0.0,995.71,0.0,55.701347,13.169366,214.19,NaN,,,60.290325,,0 / 0,13428,2020-12-05 14:33:54:401
-2.0687,-9.953,-1.5323,-1.7498,-9.5527,-1.3618,-1.1523,1.2972,0.681,-0.1205,0.6265,0.1592,0.0,4.68,47.64,-12.12,39.63,77.37,128.35,0.0,995.71,0.0,55.701347,13.169366,214.19,NaN,,,60.290325,,0 / 0,13529,2020-12-05 14:33:54:502
-2.1022,-10.4486,-0.2873,-1.8958,-9.415,-1.9834,0.0307,-0.5787,1.708,-0.5988,0.814,0.191,0.0,6.42,48.0,-10.02,36.71,74.55,133.67,0.0,995.72,0.0,55.701347,13.169366,214.19,NaN,,,60.290325,,0 / 0,13628,2020-12-05 14:33:54:601
-0.0287,-9.455,0.0359,-1.8201,-9.4133,-2.0607,1.619,0.7006,2.2307,-0.0948,0.825,0.0657,0.0,9.0,47.46,-6.96,37.72,73.23,138.2,0.0,995.69,0.0,55.701347,13.169366,214.19,NaN,,,60.290325,,0 / 0,13728,2020-12-05 14:33:54:701
-1.1564,-11.0807,-3.4047,-1.676,-9.5282,-1.6044,0.6776,-2.3019,-0.5768,0.9986,-0.5054,0.1482,0.0,9.72,46.08,-5.94,54.94,76.31,133.75,0.0,995.71,0.0,55.701347,13.169366,214.19,NaN,,,60.290325,,0 / 0,13829,2020-12-05 14:33:54:802
-3.5723,-9.1581,-1.7263,-1.8051,-9.6135,-0.7018,-2.3729,1.7244,-1.7428,1.2118,-0.8377,0.0938,0.0,10.14,46.2,-8.94,69.87,78.7,118.69,0.0,995.71,0.0,55.701347,13.169366,214.19,NaN,,,60.290325,,0 / 0,13929,2020-12-05 14:33:54:902
-0.2035,-7.5324,0.6536,-1.5886,-9.6762,0.1346,2.1081,1.5285,-0.4339,0.1202,-0.2415,-0.5836,0.0,10.38,42.06,-14.22,81.48,78.23,102.73,0.0,995.7,0.0,55.701347,13.169366,214.19,NaN,,,60.290325,,0 / 0,14028,2020-12-05 14:33:55:001
-1.9322,-9.9386,0.2035,-1.0749,-9.737,0.4542,-1.0632,0.0042,0.0677,0.4537,-0.9868,-0.2922,0.0,6.9,41.52,-16.44,112.79,83.08,75.1,0.0,995.71,0.0,55.701347,13.169366,214.19,NaN,,,60.290325,,0 / 0,14129,2020-12-05 14:33:55:102
-0.5243,-9.4047,1.6592,-1.3341,-9.7094,0.3428,0.6015,0.6591,0.8759,-0.4174,-0.7003,0.4225,0.0,5.82,40.26,-16.14,115.13,82.48,68.59,0.0,995.71,0.0,55.701347,13.169366,214.19,NaN,,,60.290325,,0 / 0,14229,2020-12-05 14:33:55:202
0.1413,-10.5588,2.4685,-1.4306,-9.6875,0.5257,1.4449,-0.6199,1.8781,0.2314,-0.7198,0.2123,0.0,7.38,40.32,-13.98,115.19,81.06,69.82,0.0,995.71,0.0,55.701347,13.169366,214.19,NaN,,,60.290325,,0 / 0,14329,2020-12-05 14:33:55:302
-0.1556,-8.1693,-0.6465,-1.1827,-9.7339,0.1522,0.7183,1.3276,-0.0708,-0.8719,-0.2195,-0.1481,0.0,6.06,40.08,-12.12,126.64,81.3,60.87,0.0,995.73,0.0,55.701347,13.169366,214.19,NaN,,,60.290325,,0 / 0,14428,2020-12-05 14:33:55:401
-3.6752,-9.4741,0.7757,-1.3075,-9.6917,-0.7297,-3.1459,-0.0722,0.2341,-0.9366,-0.6404,0.0657,0.0,6.6,41.34,-6.66,91.36,83.15,103.82,0.0,995.73,0.0,55.701347,13.169366,214.19,NaN,,,60.290325,,0 / 0,14528,2020-12-05 14:33:55:501
-3.0766,-8.2842,-1.0607,-1.6639,-9.6075,-1.0477,-1.3892,1.3171,0.0057,-0.1608,0.5538,0.1574,0.0,5.46,41.04,-3.66,46.41,78.93,121.41,0.0,995.72,0.0,55.701347,13.169366,214.19,NaN,,,60.290325,,0 / 0,14629,2020-12-05 14:33:55:602
-1.8867,-10.4582,-0.9386,-1.8446,-9.5144,-1.4977,-0.1342,-0.9401,0.9123,-0.7839,0.6161,0.205,0.0,6.72,41.16,-0.66,45.95,77.83,122.46,0.0,995.74,0.0,55.701347,13.169366,214.19,NaN,,,60.290325,,0 / 0,14729,2020-12-05 14:33:55:702
0.1915,-8.7223,0.68,-1.894,-9.4291,-1.9171,1.2997,0.9174,2.7597,-0.1816,0.7603,0.1543,0.0,7.44,41.1,2.76,32.2,73.88,135.69,0.0,995.7,0.0,55.701347,13.169366,214.19,NaN,,,60.290325,,0 / 0,14828,2020-12-05 14:33:55:801
-1.7574,-11.9019,-1.846,-1.8101,-9.5093,-1.5709,-0.1289,-1.65,-1.5719,0.6944,-0.558,0.0798,0.0,7.2,40.32,4.8,39.99,74.36,134.64,0.0,995.71,0.0,55.701347,13.169366,214.19,NaN,,,60.290325,,0 / 0,14929,2020-12-05 14:33:55:902
-4.4462,-7.0751,-3.1724,-1.878,-9.5945,-0.7669,-2.523,2.5163,-2.4813,1.1996,-0.4688,0.0596,0.0,7.44,40.2,2.76,38.63,77.87,119.21,0.0,995.72,0.0,55.701347,13.169366,214.19,NaN,,,60.290325,,0 / 0,15029,2020-12-05 14:33:56:002
0.7374,-8.7774,-1.3001,-1.7971,-9.6403,0.0684,3.8181,-0.8625,-2.1646,0.6785,-0.2049,-0.4315,0.0,7.2,39.96,-1.74,43.89,77.65,96.7,0.0,995.71,0.0,55.701347,13.169366,214.19,NaN,,,60.290325,,0 / 0,15128,2020-12-05 14:33:56:101
-2.0375,-9.4574,0.3256,-1.2005,-9.7293,0.2631,-0.8507,0.2725,0.0235,0.4232,-0.8414,-0.3289,0.0,4.68,40.2,-4.86,103.2,82.8,77.64,0.0,995.73,0.0,55.701347,13.169366,214.19,NaN,,,60.290325,,0 / 0,15229,2020-12-05 14:33:56:202
-0.3711,-9.4694,0.8859,-1.3751,-9.7049,0.3061,1.2439,-0.047,0.8552,-0.4528,-0.4456,0.4408,0.0,5.58,40.56,-4.98,88.2,82.29,72.76,0.0,995.72,0.0,55.701347,13.169366,214.19,NaN,,,60.290325,,0 / 0,15328,2020-12-05 14:33:56:301
0.2131,-11.3608,2.526,-1.4234,-9.6963,0.3533,1.67,-0.5727,2.3092,0.3914,-0.3576,-0.0363,0.0,5.58,39.9,-4.26,106.65,81.4,76.06,0.0,995.72,0.0,55.701347,13.169366,214.19,NaN,,,60.290325,,0 / 0,15429,2020-12-05 14:33:56:402
-1.5635,-9.4861,-1.9944,-1.1239,-9.7335,0.4081,-3.296,1.3727,-1.7202,-0.8169,0.1152,-0.2611,0.0,5.76,40.26,-4.2,148.47,81.78,62.99,0.0,995.74,0.0,55.701347,13.169366,214.19,NaN,,,60.290325,,0 / 0,15529,2020-12-05 14:33:56:502
-4.336,-9.6848,-1.573,-1.2514,-9.7086,-0.5896,-2.9338,-1.116,-0.4782,-0.4534,-0.2794,0.224,0.0,2.94,40.14,0.3,48.7,83.77,81.85,0.0,995.72,0.0,55.701347,13.169366,214.19,NaN,,,60.290325,,0 / 0,15629,2020-12-05 14:33:56:602
-2.1285,-6.7734,-0.3998,-1.6111,-9.6047,-1.1513,-0.8383,2.3308,0.3923,-0.4779,0.7407,0.1653,0.0,4.08,41.4,2.64,353.92,79.18,123.46,0.0,995.74,0.0,55.701347,13.169366,214.19,NaN,,,60.290325,,0 / 0,15728,2020-12-05 14:33:56:701
-1.8819,-10.3265,-0.8188,-1.8212,-9.5053,-1.5821,0.0111,-1.0989,0.4113,-0.5719,0.8073,0.2258,0.0,4.26,40.62,4.68,343.87,75.76,130.98,0.0,995.75,0.0,55.701347,13.169366,214.19,NaN,,,60.290325,,0 / 0,15829,2020-12-05 14:33:56:802
-0.3711,-8.5787,0.1724,-1.8745,-9.4225,-1.9679,0.9455,0.2955,2.5378,-0.0906,0.8482,0.1494,0.0,4.08,40.26,7.08,328.87,74.2,135.56,0.0,995.7,0.0,55.701347,13.169366,214.19,NaN,,,60.290325,,0 / 0,15929,2020-12-05 14:33:56:902
-1.0247,-11.4111,-0.0431,-1.6922,-9.5259,-1.6014,1.3857,-0.8447,1.9192,0.6083,0.0169,0.1519,0.0,4.02,39.9,8.04,293.63,76.26,133.42,0.0,995.73,0.0,55.701347,13.169366,214.19,NaN,,,60.290325,,0 / 0,16028,2020-12-05 14:33:57:001
-2.5523,-9.2802,-2.3344,-1.864,-9.5984,-0.7527,-1.1647,1.1296,-2.416,1.1422,-0.1664,0.3089,0.0,4.14,41.04,3.36,310.76,78.29,119.23,0.0,995.73,0.0,55.701347,13.169366,214.19,NaN,,,60.290325,,0 / 0,16129,2020-12-05 14:33:57:102
1.2905,-9.1773,-2.1381,-1.6943,-9.6585,-0.1178,3.0756,0.4648,-2.0225,0.4727,0.2264,-0.5237,0.0,3.9,40.44,-0.96,17.8,78.54,94.68,0.0,995.73,0.0,55.701347,13.169366,214.19,NaN,,,60.290325,,0 / 0,16229,2020-12-05 14:33:57:202
-1.4509,-9.692,0.4693,-1.1537,-9.7379,0.1139,-0.2972,0.0458,0.3554,0.3767,-0.55,-0.2311,0.0,2.7,39.3,-3.0,37.31,81.6,93.34,0.0,995.72,0.0,55.701347,13.169366,214.19,NaN,,,60.290325,,0 / 0,16328,2020-12-05 14:33:57:301
-0.5052,-9.2515,0.6943,-1.2662,-9.7243,0.068,0.5982,0.5135,0.3343,-0.5658,-0.4138,0.4078,0.0,1.44,39.42,-5.04,52.52,82.57,86.93,0.0,995.7,0.0,55.701347,13.169366,214.19,NaN,,,60.290325,,0 / 0,16428,2020-12-05 14:33:57:401
-0.51,-9.7998,3.0503,-1.39,-9.7071,0.0967,0.88,-0.0926,2.9536,0.5625,-0.2421,0.1128,0.0,3.06,40.32,-4.26,48.35,81.71,92.27,0.0,995.73,0.0,55.701347,13.169366,214.19,NaN,,,60.290325,,0 / 0,16528,2020-12-05 14:33:57:501
-1.1971,-8.7607,-0.0694,-1.0457,-9.75,0.1144,-0.1514,0.9894,-0.1838,-0.837,0.059,-0.1939,0.0,2.94,39.54,-4.74,84.21,83.18,72.09,0.0,995.74,0.0,55.701347,13.169366,214.19,NaN,,,60.290325,,0 / 0,16628,2020-12-05 14:33:57:601
-4.5108,-10.3074,-2.3967,-1.0958,-9.7327,-0.493,-3.415,-0.5746,-1.9036,-0.6177,-0.2605,0.0908,0.0,1.98,40.26,-1.38,46.78,83.76,105.25,0.0,995.73,0.0,55.701347,13.169366,214.19,NaN,,,60.290325,,0 / 0,16729,2020-12-05 14:33:57:702
-2.7414,-7.3576,-0.3591,-1.5248,-9.6272,-1.0784,-1.2167,2.2695,0.7193,-0.2341,0.803,0.1739,0.0,2.46,41.22,-0.18,10.54,79.02,125.27,0.0,995.76,0.0,55.701347,13.169366,214.19,NaN,,,60.290325,,0 / 0,16828,2020-12-05 14:33:57:801
-1.8268,-10.542,-1.2331,-1.8205,-9.5084,-1.5639,-0.0064,-1.0336,0.3308,-0.5286,0.5795,0.2075,0.0,3.66,40.8,1.62,0.99,77.51,125.16,0.0,995.74,0.0,55.701347,13.169366,214.19,NaN,,,60.290325,,0 / 0,16929,2020-12-05 14:33:57:902
-0.6608,-8.538,0.6872,-1.7971,-9.4474,-1.9201,1.1363,0.9094,2.6073,-0.079,0.9417,0.0859,0.0,4.02,40.74,4.08,1.0,74.49,135.97,0.0,995.74,0.0,55.701347,13.169366,214.19,NaN,,,60.290325,,0 / 0,17028,2020-12-05 14:33:58:001
-0.2346,-10.6282,-0.2873,-1.6566,-9.5162,-1.6932,1.422,-1.112,1.4059,0.3303,-0.0735,0.2148,0.0,4.26,40.86,4.62,353.76,74.84,136.87,0.0,995.71,0.0,55.701347,13.169366,214.19,NaN,,,60.290325,,0 / 0,17129,2020-12-05 14:33:58:102
-2.9426,-6.5436,-2.3631,-1.7644,-9.6095,-0.845,-2.0544,3.3054,-2.2604,0.9491,0.1879,0.0474,0.0,4.68,40.98,2.28,20.61,77.72,126.48,0.0,995.72,0.0,55.701347,13.169366,214.19,NaN,,,60.290325,,0 / 0,17229,2020-12-05 14:33:58:202
2.2219,-12.4407,-3.4214,-1.8311,-9.6341,-0.0356,4.053,-2.8066,-3.3858,1.2888,-0.2702,-0.109,0.0,5.94,40.26,-3.12,36.94,78.31,108.48,0.0,995.72,0.0,55.701347,13.169366,214.19,NaN,,,60.290325,,0 / 0,17329,2020-12-05 14:33:58:302
-2.1309,-8.8588,0.6656,-1.2277,-9.7293,0.0476,-0.7427,0.4874,0.4097,0.389,-0.5005,-0.1939,0.0,5.7,39.24,-5.76,92.13,81.71,90.87,0.0,995.74,0.0,55.701347,13.169366,214.19,NaN,,,60.290325,,0 / 0,17429,2020-12-05 14:33:58:402
-0.5435,-9.4119,-0.1125,-1.2668,-9.722,0.2204,0.8621,0.2526,-0.151,-0.4265,-0.5231,0.34,0.0,6.0,39.24,-7.32,108.68,82.97,82.18,0.0,995.74,0.0,55.701347,13.169366,214.19,NaN,,,60.290325,,0 / 0,17529,2020-12-05 14:33:58:502
-0.9314,-9.4741,2.0399,-1.4609,-9.6968,-0.0897,0.6971,0.261,1.8519,-0.0179,-0.4114,0.1311,0.0,8.04,38.88,-6.96,101.89,81.42,94.02,0.0,995.71,0.0,55.701347,13.169366,214.19,NaN,,,60.290325,,0 / 0,17628,2020-12-05 14:33:58:601
-3.9266,-10.269,-2.6145,-1.104,-9.738,0.3501,-2.0086,1.8393,-0.1058,-0.3441,0.0327,-0.5781,0.0,9.36,37.8,-10.56,139.19,82.09,65.86,0.0,995.73,0.0,55.701347,13.169366,214.19,NaN,,,60.290325,,0 / 0,17728,2020-12-05 14:33:58:701
-3.3185,-8.8492,-2.8564,-1.0162,-9.7504,-0.2575,-2.3022,0.9012,-2.5989,-0.5524,-0.3771,-0.0949,0.0,10.44,38.46,-9.96,128.41,83.63,82.85,0.0,995.74,0.0,55.701347,13.169366,214.19,NaN,,,60.290325,,0 / 0,17829,2020-12-05 14:33:58:802
-1.6209,-8.4039,-0.3855,-1.4247,-9.6656,-0.8461,-0.1962,1.2617,0.4606,-0.3264,-0.0173,0.1488,0.0,11.58,39.06,-10.44,93.35,82.79,115.0,0.0,995.72,0.0,55.701347,13.169366,214.19,NaN,,,60.290325,,0 / 0,17930,2020-12-05 14:33:58:903
-1.4461,-10.3074,-1.6305,-1.6649,-9.6006,-1.1071,-0.2146,-0.5846,-0.77,-0.6061,-0.0772,0.1207,0.0,13.08,39.36,-10.62,82.5,79.09,121.46,0.0,995.74,0.0,55.701347,13.169366,214.19,NaN,,,60.290325,,0 / 0,18029,2020-12-05 14:33:59:002
-2.5691,-9.3281,-0.668,-1.7364,-9.4962,-1.7253,-0.8327,0.1681,1.0573,-0.5805,0.3003,0.147,0.0,13.32,40.08,-8.94,76.67,77.36,127.68,0.0,995.72,0.0,55.701347,13.169366,214.19,NaN,,,60.290325,,0 / 0,18129,2020-12-05 14:33:59:102
-0.1963,-10.2523,-0.4262,-1.8492,-9.4284,-1.9636,1.6529,-0.8239,1.5375,-0.2097,0.2233,0.07,0.0,15.0,40.98,-9.42,65.65,73.95,136.67,0.0,995.69,0.0,55.701347,13.169366,214.19,NaN,,,60.290325,,0 / 0,18229,2020-12-05 14:33:59:202
-2.4326,-10.6066,-1.9322,-1.754,-9.5022,-1.6739,-0.6786,-1.1044,-0.2583,0.411,-0.6019,0.0382,0.0,16.32,41.22,-8.52,70.14,74.39,137.16,0.0,995.72,0.0,55.701347,13.169366,214.19,NaN,,,60.290325,,0 / 0,18329,2020-12-05 14:33:59:302
-3.1461,-8.2028,-2.0016,-1.8468,-9.5821,-0.9706,-1.5937,2.2676,-1.3015,1.1049,-0.3295,0.0059,0.0,14.88,41.04,-12.18,79.43,77.51,124.49,0.0,995.72,0.0,55.701347,13.169366,214.19,NaN,,,60.290325,,0 / 0,18429,2020-12-05 14:33:59:402
-0.9529,-8.1693,-0.352,-1.6382,-9.666,-0.2359,1.965,-0.5554,-2.2467,0.4226,-0.3759,-0.4358,0.0,13.8,39.66,-17.88,96.91,78.23,101.23,0.0,995.72,0.0,55.701347,13.169366,214.19,NaN,,,60.290325,,0 / 0,18528,2020-12-05 14:33:59:501
-1.1421,-9.9051,0.0287,-1.2452,-9.7265,0.1196,-0.0672,-0.0135,0.2899,0.4189,-0.5726,-0.178,0.0,12.24,38.52,-22.44,113.35,82.67,84.51,0.0,995.75,0.0,55.701347,13.169366,214.19,NaN,,,60.290325,,0 / 1,18628,2020-12-05 14:33:59:601
-0.6752,-9.6585,0.6369,-1.2999,-9.7194,0.1178,0.4657,0.2052,0.1559,-0.5127,-0.6673,0.3028,0.0,9.6,38.22,-24.66,112.63,82.7,79.89,0.0,995.73,0.0,55.701347,13.169366,214.19,NaN,,,60.290325,,0 / 1,18728,2020-12-05 14:33:59:701
-0.1676,-9.6106,1.8244,-1.39,-9.7031,0.2966,0.5716,0.2424,1.4759,0.389,-0.5409,0.045,0.0,8.94,38.28,-27.0,101.34,81.73,86.02,0.0,995.74,0.0,55.701347,13.169366,214.19,NaN,,,60.290325,,0 / 1,18828,2020-12-05 14:33:59:801
-2.6193,-8.4231,1.4509,-1.1849,-9.7289,0.3395,-3.0355,-0.8209,-2.2818,-0.7698,-0.2147,-0.3735,0.0,6.6,37.14,-30.84,118.06,81.69,66.08,0.0,995.75,0.0,55.701347,13.169366,214.19,NaN,,,60.290325,,0 / 1,18929,2020-12-05 14:33:59:902
-2.435,-8.1453,-1.8915,-1.1416,-9.7366,-0.2549,-2.9727,0.4671,-1.1227,-0.8132,-0.6245,-0.0552,0.0,4.14,41.46,-30.3,76.02,83.15,102.59,0.0,995.74,0.0,55.701347,13.169366,214.19,NaN,,,60.290325,,0 / 1,19029,2020-12-05 14:34:00:002
-2.3224,-8.5093,-0.9122,-1.4878,-9.656,-0.8472,-0.8347,1.1468,-0.065,-0.2787,-0.2592,0.0639,0.0,1.2,44.52,-28.92,56.88,81.31,118.49,0.0,995.74,0.0,55.701347,13.169366,214.19,NaN,,,60.290325,,0 / 1,19129,2020-12-05 14:34:00:102
-1.7574,-9.795,-1.2785,-1.7217,-9.5928,-1.0884,-0.0357,-0.2022,-0.1902,-0.5823,-0.2935,0.1317,0.0,-2.22,45.36,-27.36,42.82,78.75,120.65,0.0,995.75,0.0,55.701347,13.169366,214.19,NaN,,,60.290325,,0 / 1,19228,2020-12-05 14:34:00:201
-2.4206,-9.7447,-0.3136,-1.8636,-9.4922,-1.611,-0.557,-0.2525,1.2974,-0.553,0.0346,0.1342,0.0,-3.0,48.84,-23.1,31.79,77.11,125.89,0.0,995.72,0.0,55.701347,13.169366,214.19,NaN,,,60.290325,,0 / 1,19328,2020-12-05 14:34:00:301
-0.5243,-9.0958,-0.1101,-1.8425,-9.46,-1.8122,1.6893,0.266,1.6302,-0.1694,0.0395,-0.2195,0.0,-5.64,49.86,-16.44,15.6,74.38,132.14,0.0,995.73,0.0,55.701347,13.169366,214.19,NaN,,,60.290325,,0 / 1,19429,2020-12-05 14:34:00:402
-3.2107,-13.068,-1.4246,-1.6439,-9.5325,-1.612,-1.4017,-3.4612,0.4891,0.505,-0.3753,-0.2293,0.0,-7.68,48.66,-12.54,10.25,75.5,135.49,0.0,995.73,0.0,55.701347,13.169366,214.19,NaN,,,60.290325,,0 / 1,19529,2020-12-05 14:34:00:502
-1.099,-11.471,-1.9609,-1.6277,-9.6565,-0.5216,0.4054,0.9826,-0.4549,1.4311,-1.1597,-0.1407,0.0,-11.28,48.24,-10.5,7.82,79.03,119.79,0.0,995.73,0.0,55.701347,13.169366,214.19,NaN,,,60.290325,,0 / 1,19628,2020-12-05 14:34:00:601
0.1796,-9.8357,-0.5579,-1.3455,-9.7138,-0.0459,0.6491,0.0531,0.3358,0.0628,-1.8921,-0.5237,0.0,-12.9,46.2,-10.74,28.46,80.49,95.89,0.0,995.74,0.0,55.701347,13.169366,214.19,NaN,,,60.290325,,0 / 1,19729,2020-12-05 14:34:00:702
-1.755,-9.7231,0.3184,-0.8821,-9.766,0.1337,-0.8883,0.135,-0.0555,0.0683,-2.2659,-0.1731,0.0,-16.02,46.44,-7.8,24.05,84.4,86.74,0.0,995.75,0.0,55.701347,13.169366,214.19,NaN,,,60.290325,,0 / 1,19828,2020-12-05 14:34:00:801
0.6824,-10.1661,1.3408,-0.8375,-9.7708,-0.0292,0.8864,-0.2463,0.6954,-0.4516,-2.5433,-0.2037,0.0,-17.58,46.74,0.6,16.66,84.97,79.15,0.0,995.74,0.0,55.701347,13.169366,214.19,NaN,,,60.290325,,0 / 1,19928,2020-12-05 14:34:00:901
-2.3871,-8.933,0.3544,-0.7694,-9.7761,-0.0786,-1.5804,0.8398,0.458,-0.556,-2.6209,0.3168,0.0,-17.34,47.64,6.48,342.42,85.76,91.5,0.0,995.76,0.0,55.701347,13.169366,214.19,NaN,,,60.290325,,0 / 1,20029,2020-12-05 14:34:01:002
-3.4765,-10.6282,-0.8955,-1.3609,-9.6924,-0.6125,-2.0275,-0.3719,-0.0967,-0.8963,-2.1462,0.2068,0.0,-13.14,48.84,14.82,313.83,83.6,105.05,0.0,995.77,0.0,55.701347,13.169366,214.19,NaN,,,60.290325,,0 / 1,20129,2020-12-05 14:34:01:102
-1.3192,-8.7607,1.7071,-1.7676,-9.5951,-0.9901,0.0541,-0.1287,2.2147,-0.8725,-2.6025,-0.0125,0.0,-9.12,48.24,22.44,285.28,78.79,119.36,0.0,995.77,0.0,55.701347,13.169366,214.19,NaN,,,60.290325,,0 / 1,20229,2020-12-05 14:34:01:202
-3.6417,-10.2858,1.2594,-1.9504,-9.5786,-0.7844,-1.6052,-0.2105,1.7461,-0.4687,-2.1267,-0.0668,0.0,-3.18,47.34,26.94,277.76,77.86,117.01,0.0,995.75,0.0,55.701347,13.169366,214.19,NaN,,,60.290325,,0 / 1,20329,2020-12-05 14:34:01:302
-3.68,-9.1294,-0.0814,-2.2242,-9.539,-0.4796,-1.3131,0.118,0.4051,-0.4785,-1.5806,0.0364,0.0,1.32,45.84,27.78,274.82,77.08,105.05,0.0,995.73,0.0,55.701347,13.169366,214.19,NaN,,,60.290325,,0 / 1,20429,2020-12-05 14:34:01:402
-3.0671,-9.2802,0.2969,-2.3879,-9.4989,-0.488,-0.4685,0.1685,0.7203,-0.531,-1.2556,-0.0906,0.0,5.28,45.6,28.62,273.48,76.08,101.42,0.0,995.73,0.0,55.701347,13.169366,214.19,NaN,,,60.290325,,0 / 1,20529,2020-12-05 14:34:01:502
-3.5244,-9.2922,0.3687,-2.459,-9.4743,-0.6002,-1.2018,0.1367,0.8947,-0.4986,-1.1383,-0.0919,0.0,8.82,44.1,32.28,261.32,75.04,103.72,0.0,995.73,0.0,55.701347,13.169366,214.19,NaN,,,60.290325,,0 / 1,20629,2020-12-05 14:34:01:602
-3.6034,-9.1868,0.1365,-2.5294,-9.4576,-0.5712,-1.0657,0.2675,0.7239,-0.3233,-0.9587,-0.2146,0.0,11.76,42.0,33.24,257.12,74.62,103.77,0.0,995.73,0.0,55.701347,13.169366,214.19,NaN,,,60.290325,,0 / 1,20728,2020-12-05 14:34:01:701
-2.1285,-10.4031,-1.087,-2.2988,-9.5247,-0.4064,-0.1769,-1.3664,-0.4513,-0.1199,-1.2269,-0.5537,0.0,13.74,41.82,33.6,253.6,75.51,100.94,0.0,995.73,0.0,55.701347,13.169366,214.19,NaN,,,60.290325,,0 / 1,20829,2020-12-05 14:34:01:802
-2.3057,-8.5978,-1.0655,-1.8152,-9.6357,-0.17,-0.5784,0.7717,-1.1071,0.4378,-1.4327,-0.5366,0.0,15.36,41.34,32.28,250.74,77.17,99.59,0.0,995.73,0.0,55.701347,13.169366,214.19,NaN,,,60.290325,,0 / 1,20929,2020-12-05 14:34:01:902
-1.6975,-11.2627,-1.6209,-1.4984,-9.6845,0.3685,-0.1992,-1.5782,-1.9894,0.4305,-1.087,-0.3869,0.0,17.16,42.6,27.0,264.02,80.95,76.18,0.0,995.73,0.0,55.701347,13.169366,214.19,NaN,,,60.290325,,0 / 1,21028,2020-12-05 14:34:02:001
-1.4964,-8.9019,1.0559,-1.2957,-9.7091,0.4737,-0.2008,0.8072,0.5822,0.3639,-1.2177,-0.2733,0.0,18.0,43.92,23.28,261.78,81.72,73.35,0.0,995.73,0.0,55.701347,13.169366,214.19,NaN,,,60.290325,,0 / 1,21129,2020-12-05 14:34:02:102
-0.9649,-9.4191,0.6488,-0.9461,-9.7216,0.8747,-0.0188,0.3025,-0.2259,0.1819,-0.561,-0.2464,0.0,17.4,44.7,20.88,283.86,82.36,49.54,0.0,995.75,0.0,55.701347,13.169366,214.19,NaN,,,60.290325,,0 / 1,21229,2020-12-05 14:34:02:202
-0.3974,-9.6585,1.0726,-0.9778,-9.7324,0.7031,0.5804,0.0739,0.3696,-0.2983,-0.426,0.1225,0.0,17.46,44.52,19.92,282.33,82.55,47.64,0.0,995.76,0.0,55.701347,13.169366,214.19,NaN,,,60.290325,,0 / 1,21329,2020-12-05 14:34:02:302
-0.7494,-10.1972,1.9202,-1.0549,-9.7236,0.7127,0.6024,-0.4736,1.3679,-0.013,-0.6685,0.2307,0.0,18.24,42.84,20.52,272.14,82.96,58.3,0.0,995.78,0.0,55.701347,13.169366,214.19,NaN,,,60.290325,,0 / 1,21429,2020-12-05 14:34:02:402
-4.5898,-12.4359,-1.8101,-1.0602,-9.7136,0.8318,-2.7778,-5.9497,-3.0872,-0.7906,-0.2812,-0.1139,0.0,18.96,41.04,19.62,275.96,82.18,55.35,0.0,995.79,0.0,55.701347,13.169366,214.19,NaN,,,60.290325,,0 / 1,21529,2020-12-05 14:34:02:502
-2.1141,-9.2539,-3.4262,-1.1491,-9.7384,0.1186,-0.965,0.4845,-3.5448,-0.6293,0.0071,0.0871,0.0,18.42,41.28,23.7,261.51,83.16,71.02,0.0,995.79,0.0,55.701347,13.169366,214.19,NaN,,,60.290325,,0 / 1,21629,2020-12-05 14:34:02:602
-2.6553,-7.7287,0.2011,-1.3278,-9.6949,-0.6455,-0.8845,1.9805,1.4428,-0.129,0.1787,0.1873,0.0,17.46,39.36,27.3,228.62,82.87,102.82,0.0,995.79,0.0,55.701347,13.169366,214.19,NaN,,,60.290325,,0 / 1,21728,2020-12-05 14:34:02:701
-1.1876,-9.0719,-0.2706,-1.7833,-9.6122,-0.7711,0.5958,0.5403,0.5006,-0.0674,0.5013,0.2068,0.0,17.76,37.32,28.5,221.87,79.47,114.44,0.0,995.82,0.0,55.701347,13.169366,214.19,NaN,,,60.290325,,0 / 1,21828,2020-12-05 14:34:02:801
-2.0399,-9.6944,-0.5052,-1.9707,-9.5241,-1.2559,-0.5152,-0.3469,0.7075,-0.3612,0.6809,0.2148,0.0,17.94,36.12,30.12,219.95,77.52,116.77,0.0,995.78,0.0,55.701347,13.169366,214.19,NaN,,,60.290325,,0 / 1,21928,2020-12-05 14:34:02:901
-1.4174,-9.8548,-0.3089,-2.0236,-9.4566,-1.6271,0.6001,-0.4017,1.3459,-0.3062,0.8904,0.1342,0.0,14.58,35.1,34.32,219.37,75.02,126.8,0.0,995.74,0.0,55.701347,13.169366,214.19,NaN,,,60.290325,,0 / 1,22028,2020-12-05 14:34:03:001
-1.506,-10.7311,-0.9721,-1.9213,-9.4936,-1.5333,0.4254,-1.2298,0.4993,0.6687,0.1201,0.3223,0.0,11.88,33.72,36.48,219.61,74.53,130.13,0.0,995.75,0.0,55.701347,13.169366,214.19,NaN,,,60.290325,,0 / 1,22128,2020-12-05 14:34:03:101
-2.2865,-6.2538,-1.6161,-2.0387,-9.5627,-0.7537,-1.2917,3.2107,-1.7938,1.3773,0.3956,0.1555,0.0,11.34,35.28,34.38,237.76,76.68,116.24,0.0,995.76,0.0,55.701347,13.169366,214.19,NaN,,,60.290325,,0 / 1,22229,2020-12-05 14:34:03:202
1.1397,-11.3393,-3.5172,-2.0081,-9.5939,0.3066,3.523,-2.9327,-3.7809,0.5258,0.3626,-0.3955,0.0,9.24,38.7,29.82,263.83,77.22,93.37,0.0,995.75,0.0,55.701347,13.169366,214.19,NaN,,,60.290325,,0 / 1,22328,2020-12-05 14:34:03:301
-1.6664,-8.8109,0.3376,-1.4698,-9.6907,0.3174,0.0743,0.1179,-0.2658,0.5325,-0.0467,-0.2892,0.0,5.7,41.28,27.36,278.64,80.61,82.74,0.0,995.76,0.0,55.701347,13.169366,214.19,NaN,,,60.290325,,0 / 1,22428,2020-12-05 14:34:03:401
-0.1532,-9.1366,0.68,-1.4224,-9.6924,0.4523,1.3122,0.5535,0.3246,-0.5041,-0.1273,0.362,0.0,4.86,41.28,24.12,289.68,81.25,72.36,0.0,995.77,0.0,55.701347,13.169366,214.19,NaN,,,60.290325,,0 / 1,22528,2020-12-05 14:34:03:501
-0.2107,-10.8796,1.3959,-1.5739,-9.6763,0.2496,1.3632,-1.2033,1.1463,0.2387,-0.1859,0.1036,0.0,6.0,40.08,24.6,276.76,80.63,84.42,0.0,995.76,0.0,55.701347,13.169366,214.19,NaN,,,60.290325,,0 / 1,22628,2020-12-05 14:34:03:601
-6.5723,-17.8757,-3.4597,-1.3776,-9.6899,0.6149,-2.1683,-10.3741,-3.1504,-0.4809,0.238,-0.4498,0.0,8.22,39.3,22.2,288.12,81.15,65.95,0.0,995.77,0.0,55.701347,13.169366,214.19,NaN,,,60.290325,,0 / 1,22729,2020-12-05 14:34:03:702
-1.8077,-8.5188,-3.8261,-1.3205,-9.7173,-0.035,-0.4872,1.1984,-3.791,-0.4895,0.136,-0.1719,0.0,7.8,39.18,23.4,272.53,82.33,83.14,0.0,995.77,0.0,55.701347,13.169366,214.19,NaN,,,60.290325,,0 / 1,22829,2020-12-05 14:34:03:802
-2.107,-7.7622,0.5627,-1.5359,-9.646,-0.875,-0.571,1.8838,1.4377,-0.3514,0.5715,0.1091,0.0,7.14,37.8,24.9,240.2,80.77,116.35,0.0,995.76,0.0,55.701347,13.169366,214.19,NaN,,,60.290325,,0 / 1,22929,2020-12-05 14:34:03:902
-2.083,-10.135,-1.3719,-1.85,-9.566,-1.1134,0.3057,-0.7869,-0.2417,-0.2854,0.7322,0.2221,0.0,7.86,36.36,24.96,234.88,78.91,120.51,0.0,995.78,0.0,55.701347,13.169366,214.19,NaN,,,60.290325,,0 / 1,23029,2020-12-05 14:34:04:002
-1.834,-9.7064,-0.8979,-1.9187,-9.4738,-1.6538,0.1039,-0.0243,0.926,-0.305,0.7511,0.1531,0.0,6.3,35.7,26.82,235.52,75.47,128.79,0.0,995.75,0.0,55.701347,13.169366,214.19,NaN,,,60.290325,,0 / 1,23128,2020-12-05 14:34:04:101
-0.2945,-8.9426,-0.1413,-1.8811,-9.4505,-1.8218,1.2802,0.9102,2.1617,-0.217,0.5111,-0.0167,0.0,6.66,34.98,27.66,229.46,74.65,132.41,0.0,995.75,0.0,55.701347,13.169366,214.19,NaN,,,60.290325,,0 / 1,23228,2020-12-05 14:34:04:201
-0.5986,-11.6338,-0.4094,-1.6075,-9.5201,-1.7184,1.7368,-1.0003,1.4838,0.6266,-0.3423,-0.0699,0.0,4.98,34.44,26.82,225.97,76.12,136.91,0.0,995.75,0.0,55.701347,13.169366,214.19,NaN,,,60.290325,,0 / 1,23328,2020-12-05 14:34:04:301
-3.2131,-8.2243,-1.6401,-1.6095,-9.6489,-0.6917,-3.533,2.7415,-2.1783,1.1849,-0.3936,0.0187,0.0,6.48,35.94,24.66,230.75,78.93,128.44,0.0,995.76,0.0,55.701347,13.169366,214.19,NaN,,,60.290325,,0 / 1,23428,2020-12-05 14:34:04:401
2.0615,-10.1637,-2.66,-1.6091,-9.6731,0.112,2.9213,0.4693,-1.5372,0.6034,-0.7632,-0.3246,0.0,7.56,38.88,18.6,258.15,79.65,101.42,0.0,995.77,0.0,55.701347,13.169366,214.19,NaN,,,60.290325,,0 / 1,23528,2020-12-05 14:34:04:501
-2.1668,-9.3425,0.6776,-0.9631,-9.7566,0.226,-1.2117,0.109,0.4381,0.37,-1.0204,-0.101,0.0,7.5,39.9,15.48,263.7,83.49,83.75,0.0,995.77,0.0,55.701347,13.169366,214.19,NaN,,,60.290325,,0 / 1,23628,2020-12-05 14:34:04:601
-0.8619,-9.4287,0.905,-1.1152,-9.7411,0.1923,-0.3362,0.6512,-0.3144,-0.5463,-0.5885,0.3834,0.0,9.66,40.02,13.2,258.4,83.37,80.21,0.0,995.74,0.0,55.701347,13.169366,214.19,NaN,,,60.290325,,0 / 1,23729,2020-12-05 14:34:04:702
-0.3998,-10.4007,1.9346,-1.2907,-9.716,0.3229,1.1798,-0.8861,1.2677,0.3658,-0.5494,0.1134,0.0,11.28,38.76,12.54,249.58,82.86,85.92,0.0,995.75,0.0,55.701347,13.169366,214.19,NaN,,,60.290325,,0 / 1,23829,2020-12-05 14:34:04:802
-3.6034,-8.2794,-0.4334,-1.0887,-9.729,0.5756,-2.1695,2.4327,0.5123,-1.1394,-0.3216,-0.401,0.0,11.94,39.24,9.6,266.08,82.79,62.13,0.0,995.76,0.0,55.701347,13.169366,214.19,NaN,,,60.290325,,0 / 1,23929,2020-12-05 14:34:04:902
-3.4837,-9.443,-3.1485,-1.1308,-9.7382,-0.243,-0.7467,0.4487,-3.198,-1.0313,-0.55,-0.0729,0.0,12.54,38.34,9.96,239.73,83.42,81.32,0.0,995.75,0.0,55.701347,13.169366,214.19,NaN,,,60.290325,,0 / 1,24029,2020-12-05 14:34:05:002
-2.842,-7.8005,-0.6345,-1.478,-9.6605,-0.8119,-1.6251,1.5233,-0.3618,-0.1535,0.2294,0.1445,0.0,13.68,38.28,11.64,202.76,82.06,116.75,0.0,995.77,0.0,55.701347,13.169366,214.19,NaN,,,60.290325,,0 / 1,24129,2020-12-05 14:34:05:102
-1.1636,-9.862,-0.8763,-1.859,-9.5717,-1.0474,0.6201,-0.2355,0.1406,-0.44,0.3974,0.2136,0.0,13.5,37.02,12.78,204.59,78.33,118.16,0.0,995.76,0.0,55.701347,13.169366,214.19,NaN,,,60.290325,,0 / 1,24228,2020-12-05 14:34:05:201
-1.7167,-9.5891,0.103,-1.9835,-9.4484,-1.7214,0.2668,-0.1407,1.8244,-0.4931,0.668,0.1586,0.0,13.44,36.66,15.42,196.75,75.7,126.2,0.0,995.72,0.0,55.701347,13.169366,214.19,NaN,,,60.290325,,0 / 1,24329,2020-12-05 14:34:05:302
-0.8356,-10.4151,-0.0958,-1.8979,-9.4738,-1.6777,1.0623,-0.9413,1.5819,-0.0325,-9.0E-4,0.0053,0.0,12.3,35.22,17.16,204.37,74.63,131.86,0.0,995.74,0.0,55.701347,13.169366,214.19,NaN,,,60.290325,,0 / 1,24429,2020-12-05 14:34:05:402
-3.4525,-8.8804,-2.8013,-1.8429,-9.568,-1.1076,-1.6096,0.6876,-1.6937,0.9931,-0.1029,-0.1658,0.0,11.82,35.82,15.96,216.49,77.33,121.01,0.0,995.74,0.0,55.701347,13.169366,214.19,NaN,,,60.290325,,0 / 1,24529,2020-12-05 14:34:05:502
0.6249,-13.4606,-2.5427,-2.0152,-9.5974,-0.0038,2.6401,-3.8633,-2.5389,1.425,-0.4425,-0.0515,0.0,11.88,36.84,12.96,228.94,78.22,108.78,0.0,995.75,0.0,55.701347,13.169366,214.19,NaN,,,60.290325,,0 / 1,24628,2020-12-05 14:34:05:601
-0.7997,-7.2092,0.735,-1.4319,-9.701,0.1021,1.0632,2.4895,0.348,0.1862,-0.2757,-0.5598,0.0,11.4,37.68,10.32,246.9,81.58,85.92,0.0,995.75,0.0,55.701347,13.169366,214.19,NaN,,,60.290325,,0 / 1,24728,2020-12-05 14:34:05:701
-1.3552,-10.0655,-0.7614,-1.1785,-9.7233,0.4883,-0.1767,-0.3422,-1.2497,-0.1455,-0.4248,0.2472,0.0,9.48,37.5,7.68,256.32,82.77,73.9,0.0,995.76,0.0,55.701347,13.169366,214.19,NaN,,,60.290325,,0 / 1,24828,2020-12-05 14:34:05:801
-0.3735,-10.0464,2.5307,-1.4145,-9.701,0.2457,1.041,-0.3454,2.285,-0.046,-0.2733,0.1488,0.0,10.5,37.02,6.66,261.12,82.24,68.72,0.0,995.74,0.0,55.701347,13.169366,214.19,NaN,,,60.290325,,0 / 1,24929,2020-12-05 14:34:05:902
-2.8109,-20.4351,-2.1165,-1.3353,-9.6872,0.7388,-1.4755,-10.748,-2.8553,0.3004,0.1164,0.1653,0.0,11.4,36.3,5.16,255.19,81.26,65.68,0.0,995.75,0.0,55.701347,13.169366,214.19,NaN,,,60.290325,,0 / 1,25029,2020-12-05 14:34:06:002
-0.2777,-7.6832,-1.1684,-1.1729,-9.7362,0.0247,0.8952,2.053,-1.1931,-0.608,0.1555,0.0621,0.0,10.32,36.66,5.22,252.65,82.71,67.86,0.0,995.76,0.0,55.701347,13.169366,214.19,NaN,,,60.290325,,0 / 1,25129,2020-12-05 14:34:06:102
-2.9234,-9.4646,0.7111,-1.3568,-9.6871,-0.6999,-1.9401,-0.4431,1.0327,-0.6061,-0.1236,0.1726,0.0,9.54,36.42,7.32,207.3,82.34,108.31,0.0,995.76,0.0,55.701347,13.169366,214.19,NaN,,,60.290325,,0 / 1,25229,2020-12-05 14:34:06:202
-1.8627,-10.2451,-1.4054,-1.8425,-9.5582,-1.1902,-0.0202,-0.6869,-0.2152,-0.2237,0.7334,0.2661,0.0,9.9,35.88,9.72,205.8,78.12,122.92,0.0,995.77,0.0,55.701347,13.169366,214.19,NaN,,,60.290325,,0 / 1,25328,2020-12-05 14:34:06:301
-1.573,-9.8261,-0.0838,-2.0711,-9.4204,-1.7711,0.4981,-0.4057,1.6873,-0.4882,0.8238,0.2545,0.0,9.3,35.88,12.24,220.45,76.06,124.74,0.0,995.76,0.0,55.701347,13.169366,214.19,NaN,,,60.290325,,0 / 1,25429,2020-12-05 14:34:06:402
-1.3911,-9.6226,-0.5124,-2.0343,-9.3995,-1.9184,0.6432,-0.223,1.406,-0.1431,0.5483,0.1842,0.0,8.94,35.82,15.12,218.88,73.43,133.32,0.0,995.72,0.0,55.701347,13.169366,214.19,NaN,,,60.290325,,0 / 1,25529,2020-12-05 14:34:06:502
-2.4541,-9.9674,-3.0479,-1.921,-9.5117,-1.4166,-0.5332,-0.4556,-1.6313,0.706,-0.214,0.128,0.0,9.48,36.12,15.96,223.86,74.09,133.17,0.0,995.75,0.0,55.701347,13.169366,214.19,NaN,,,60.290325,,0 / 1,25629,2020-12-05 14:34:06:602
-3.2538,-8.7056,-2.1812,-1.8988,-9.5923,-0.7434,-1.355,0.8867,-1.4378,1.2442,-0.0277,0.0053,0.0,7.62,37.14,14.46,245.62,78.0,111.38,0.0,995.75,0.0,55.701347,13.169366,214.19,NaN,,,60.290325,,0 / 1,25728,2020-12-05 14:34:06:701
0.8021,-9.4215,-2.5499,-1.7504,-9.6486,-0.1054,1.8653,1.0088,-1.399,0.5197,0.194,-0.5054,0.0,7.14,38.22,11.4,266.59,78.57,97.03,0.0,995.76,0.0,55.701347,13.169366,214.19,NaN,,,60.290325,,0 / 1,25828,2020-12-05 14:34:06:801
-1.3935,-9.5101,0.0742,-1.1662,-9.7359,0.1515,-0.561,0.1478,0.1519,0.2326,-0.459,-0.0076,0.0,5.4,38.1,9.06,270.23,82.94,87.93,0.0,995.77,0.0,55.701347,13.169366,214.19,NaN,,,60.290325,,0 / 1,25929,2020-12-05 14:34:06:902
0.0168,-9.1078,1.7502,-1.4083,-9.7049,-0.0381,1.2156,0.768,1.5322,-0.3416,-0.2916,0.4365,0.0,6.0,38.76,9.6,268.9,82.47,86.4,0.0,995.75,0.0,55.701347,13.169366,214.19,NaN,,,60.290325,,0 / 1,26029,2020-12-05 14:34:07:002
0.0814,-15.2946,0.5387,-1.3656,-9.7023,0.4139,-2.6003,-12.9898,-3.7479,1.1764,0.3968,-0.2434,0.0,9.06,38.16,9.48,257.66,81.36,91.81,0.0,995.75,0.0,55.701347,13.169366,214.19,NaN,,,60.290325,,0 / 1,26128,2020-12-05 14:34:07:101
-0.7422,-8.4446,-1.3049,-1.1424,-9.7395,-0.0849,0.6739,0.8605,-0.3577,-0.6862,0.1433,0.1225,0.0,10.74,38.46,9.66,243.88,83.55,83.55,0.0,995.78,0.0,55.701347,13.169366,214.19,NaN,,,60.290325,,0 / 1,26229,2020-12-05 14:34:07:202
-3.1317,-9.1796,1.2426,-1.3455,-9.6806,-0.804,-2.6805,0.4908,-0.3905,-0.4687,0.0926,0.1977,0.0,11.82,39.06,9.18,217.26,83.11,102.95,0.0,995.76,0.0,55.701347,13.169366,214.19,NaN,,,60.290325,,0 / 1,26329,2020-12-05 14:34:07:302
-3.0192,-8.1286,-1.1397,-1.6411,-9.607,-1.0875,-0.2869,-0.0202,-0.3277,-0.181,0.7872,0.1781,0.0,11.58,39.0,10.56,197.78,78.42,123.53,0.0,995.79,0.0,55.701347,13.169366,214.19,NaN,,,60.290325,,0 / 1,26428,2020-12-05 14:34:07:401
-2.0734,-9.8405,-0.1772,-1.8754,-9.4691,-1.7289,-0.1968,-0.3094,1.3918,-0.4943,0.8763,0.2276,0.0,9.96,38.52,11.94,193.64,76.61,126.76,0.0,995.76,0.0,55.701347,13.169366,214.19,NaN,,,60.290325,,0 / 0,26529,2020-12-05 14:34:07:502
-0.8619,-10.0799,-0.577,-1.879,-9.4522,-1.8151,1.2908,1.0421,1.2616,-0.1156,0.6625,0.1354,0.0,7.68,38.64,13.86,225.83,74.31,134.08,0.0,995.73,0.0,55.701347,13.169366,214.19,NaN,,,60.290325,,0 / 0,26629,2020-12-05 14:34:07:602
-1.5754,-11.4949,-2.3153,-1.6313,-9.5564,-1.4782,-0.7814,-0.2375,-1.3775,0.874,-0.1511,-0.0039,0.0,4.68,39.24,16.02,237.93,77.03,132.18,0.0,995.75,0.0,55.701347,13.169366,214.19,NaN,,,60.290325,,0 / 0,26729,2020-12-05 14:34:07:702
-1.652,-11.6577,-1.4605,-1.6478,-9.6636,-0.2623,-0.6704,-1.1397,-0.9276,1.5612,-0.6111,-0.0815,0.0,0.66,40.8,16.32,264.33,79.15,120.62,0.0,995.76,0.0,55.701347,13.169366,214.19,NaN,,,60.290325,,0 / 0,26829,2020-12-05 14:34:07:802
-0.4238,-7.6617,0.8308,-1.2387,-9.724,0.2823,1.955,1.2287,-0.61,0.2863,-0.4107,-0.5335,0.0,-1.2,41.82,16.62,303.12,81.18,78.56,0.0,995.77,0.0,55.701347,13.169366,214.19,NaN,,,60.290325,,0 / 0,26929,2020-12-05 14:34:07:902
-1.7813,-9.8237,-0.5531,-0.9297,-9.7419,0.6337,-0.748,-0.1576,-1.3516,0.3144,-0.5415,-0.0051,0.0,-0.66,41.94,17.46,313.41,83.69,61.17,0.0,995.77,0.0,55.701347,13.169366,214.19,NaN,,,60.290325,,0 / 0,27031,2020-12-05 14:34:08:004
-0.1437,-9.6944,1.8053,-1.1471,-9.7352,0.2847,1.1609,-0.3277,1.5439,-0.3997,-0.1951,0.3015,0.0,2.22,42.18,22.92,290.74,83.08,76.06,0.0,995.75,0.0,55.701347,13.169366,214.19,NaN,,,60.290325,,0 / 0,27130,2020-12-05 14:34:08:103
-2.2386,-17.5716,-1.2977,-1.1031,-9.721,0.6745,1.137,-2.7122,0.6228,-0.0484,0.3883,-0.1908,0.0,6.24,41.94,24.12,287.85,82.83,72.08,0.0,995.78,0.0,55.701347,13.169366,214.19,NaN,,,60.290325,,0 / 0,27228,2020-12-05 14:34:08:201
-1.4246,-8.1501,-0.6369,-1.0342,-9.7493,0.2293,-0.2291,2.3275,-0.8321,-0.4436,0.2374,-0.0326,0.0,9.9,42.72,24.12,277.7,83.66,70.12,0.0,995.79,0.0,55.701347,13.169366,214.19,NaN,,,60.290325,,0 / 0,27329,2020-12-05 14:34:08:302
-2.5451,-11.1717,-0.0503,-1.1926,-9.7303,-0.2619,-0.7253,-0.8154,0.3162,-0.6,0.0456,0.1317,0.0,10.08,42.54,25.92,253.61,83.66,94.25,0.0,995.77,0.0,55.701347,13.169366,214.19,NaN,,,60.290325,,0 / 0,27428,2020-12-05 14:34:08:401
-1.8651,-10.0655,-0.4597,-1.494,-9.6494,-0.91,-0.8355,0.5797,-0.0764,-0.5304,0.2398,0.238,0.0,9.66,41.4,29.58,233.91,80.67,117.88,0.0,995.79,0.0,55.701347,13.169366,214.19,NaN,,,60.290325,,0 / 0,27528,2020-12-05 14:34:08:501
-2.4326,-10.0583,-0.4046,-1.6024,-9.5684,-1.4313,-0.6434,-0.4117,0.4078,-0.597,0.5789,0.1952,0.0,10.2,40.26,31.86,225.01,78.24,128.05,0.0,995.74,0.0,55.701347,13.169366,214.19,NaN,,,60.290325,,0 / 0,27628,2020-12-05 14:34:08:601
-1.099,-9.0025,-0.9457,-1.71,-9.5211,-1.611,0.3968,-0.3949,0.8644,-0.1529,0.4658,0.0328,0.0,10.32,39.78,34.5,220.43,76.53,133.7,0.0,995.74,0.0,55.701347,13.169366,214.19,NaN,,,60.290325,,0 / 0,27728,2020-12-05 14:34:08:701
-1.7478,-10.8269,-2.5044,-1.5175,-9.6088,-1.2405,-0.2479,-2.3434,-0.6763,0.5301,0.0437,-0.0589,0.0,9.36,38.88,34.5,221.92,76.7,134.1,0.0,995.74,0.0,55.701347,13.169366,214.19,NaN,,,60.290325,,0 / 0,27829,2020-12-05 14:34:08:802
-0.5267,-11.1908,-0.68,-1.5268,-9.6818,-0.3193,0.8704,-0.2686,-0.1909,1.3071,-0.5635,-0.2348,0.0,10.26,41.22,33.0,233.95,79.51,121.43,0.0,995.75,0.0,55.701347,13.169366,214.19,NaN,,,60.290325,,0 / 0,27928,2020-12-05 14:34:08:901
-1.2809,-7.2307,0.1987,-1.091,-9.7422,0.2636,-0.6015,2.6775,0.1533,0.5001,-0.1316,-0.4358,0.0,10.5,44.16,27.72,270.99,82.38,78.83,0.0,995.77,0.0,55.701347,13.169366,214.19,NaN,,,60.290325,,0 / 0,28029,2020-12-05 14:34:09:002
-1.3121,-10.5564,-0.2682,-0.8629,-9.7445,0.6859,0.0807,-0.7456,-1.3178,0.4934,-0.2104,0.0028,0.0,10.26,46.56,22.8,295.82,83.55,51.52,0.0,995.76,0.0,55.701347,13.169366,214.19,NaN,,,60.290325,,0 / 0,28129,2020-12-05 14:34:09:102
-0.0766,-10.111,2.5092,-1.0335,-9.7476,0.2939,0.9834,0.2718,1.9671,-0.2305,-0.3173,0.238,0.0,10.02,46.92,23.64,289.35,83.46,58.72,0.0,995.76,0.0,55.701347,13.169366,214.19,NaN,,,60.290325,,0 / 0,28228,2020-12-05 14:34:09:201
-0.8021,-15.4431,-0.1772,-0.9986,-9.7354,0.6286,0.1888,-5.71,-0.852,0.4659,0.3571,-0.1236,0.0,11.52,46.86,23.64,280.25,83.45,64.54,0.0,995.75,0.0,55.701347,13.169366,214.19,NaN,,,60.290325,,0 / 0,28329,2020-12-05 14:34:09:302
-0.5267,-9.2156,0.1724,-0.941,-9.7568,0.2994,-0.1395,0.2649,-1.1518,-0.5909,-0.1133,0.0615,0.0,11.22,46.62,22.2,281.9,83.91,62.97,0.0,995.76,0.0,55.701347,13.169366,214.19,NaN,,,60.290325,,0 / 0,28428,2020-12-05 14:34:09:401
-1.3791,-9.3832,1.336,-1.1959,-9.7158,-0.5863,-0.1832,0.3326,1.9223,-0.7094,0.0181,0.1928,0.0,12.66,45.12,24.3,259.62,84.41,81.33,0.0,995.77,0.0,55.701347,13.169366,214.19,NaN,,,60.290325,,0 / 0,28529,2020-12-05 14:34:09:502
-2.9019,-9.3544,-0.5076,-1.4821,-9.6442,-0.9811,-1.4197,0.2898,0.4735,-0.3874,0.3058,0.2404,0.0,13.74,43.44,27.12,219.66,80.42,122.01,0.0,995.77,0.0,55.701347,13.169366,214.19,NaN,,,60.290325,,0 / 0,28629,2020-12-05 14:34:09:602
-2.2243,-10.0631,-0.5842,-1.5877,-9.5802,-1.3673,-0.5743,-0.5117,0.5556,-0.4241,0.7291,0.1732,0.0,12.42,43.44,29.16,218.94,78.8,124.76,0.0,995.77,0.0,55.701347,13.169366,214.19,NaN,,,60.290325,,0 / 0,28729,2020-12-05 14:34:09:702
-0.826,-9.3784,-0.3998,-1.7095,-9.5167,-1.6373,0.7255,0.6866,1.0531,-0.225,0.7187,0.1335,0.0,12.36,42.0,31.62,218.01,76.15,132.81,0.0,995.72,0.0,55.701347,13.169366,214.19,NaN,,,60.290325,,0 / 0,28831,2020-12-05 14:34:09:804
-1.2929,-12.0145,-1.7789,-1.5238,-9.5712,-1.4965,0.2309,-2.4432,-0.2824,0.1733,0.4023,-0.0467,0.0,11.22,41.4,31.68,215.28,76.19,134.81,0.0,995.74,0.0,55.701347,13.169366,214.19,NaN,,,60.290325,,0 / 0,28929,2020-12-05 14:34:09:902
-2.2458,-7.0009,-1.4581,-1.6032,-9.631,-0.9187,-1.0401,2.939,-1.2146,1.1049,0.0437,0.004,0.0,10.32,42.6,30.18,234.41,79.14,119.81,0.0,995.75,0.0,55.701347,13.169366,214.19,NaN,,,60.290325,,0 / 0,29028,2020-12-05 14:34:10:001
0.6369,-8.9211,-1.3504,-1.525,-9.6871,0.0608,2.1619,0.7661,-1.4112,0.5881,-0.1951,-0.2122,0.0,10.2,44.94,24.06,251.95,80.06,100.75,0.0,995.75,0.0,55.701347,13.169366,214.19,NaN,,,60.290325,,0 / 0,29128,2020-12-05 14:34:10:101
-1.6449,-9.6968,0.9242,-1.2185,-9.7265,0.2858,-0.4264,0.0296,0.6384,0.3719,-0.5934,0.0297,0.0,10.98,47.28,20.82,265.49,82.68,81.61,0.0,995.76,0.0,55.701347,13.169366,214.19,NaN,,,60.290325,,0 / 0,29229,2020-12-05 14:34:10:202
-0.7015,-9.3257,0.8452,-1.4156,-9.7016,0.2132,0.7691,0.3672,0.9461,-0.6104,-0.2819,0.3614,0.0,11.52,47.16,19.62,273.0,81.93,74.55,0.0,995.74,0.0,55.701347,13.169366,214.19,NaN,,,60.290325,,0 / 0,29328,2020-12-05 14:34:10:301
-0.3567,-9.9865,2.8612,-1.6474,-9.6569,0.4468,1.0667,0.1036,2.6359,0.4152,-0.5274,0.1421,0.0,13.5,45.3,20.28,260.16,80.21,83.25,0.0,995.74,0.0,55.701347,13.169366,214.19,NaN,,,60.290325,,0 / 0,29429,2020-12-05 14:34:10:402
-0.9386,-9.0168,-2.6864,-1.4449,-9.671,0.745,-2.6541,-1.6923,-4.6668,-0.6782,0.0755,-0.156,0.0,14.88,46.38,18.0,277.9,79.79,62.66,0.0,995.76,0.0,55.701347,13.169366,214.19,NaN,,,60.290325,,0 / 0,29529,2020-12-05 14:34:10:502
-5.8756,-10.1398,-2.9426,-1.4445,-9.6946,-0.3149,-4.5579,-0.1172,-0.9517,-0.4553,0.4243,-0.0021,0.0,13.02,45.9,19.5,259.37,81.91,82.55,0.0,995.76,0.0,55.701347,13.169366,214.19,NaN,,,60.290325,,0 / 0,29628,2020-12-05 14:34:10:601
-2.2865,-9.3305,-1.4605,-1.8699,-9.5951,-0.7797,-0.2778,0.7004,-0.1685,0.0786,1.2862,0.2068,0.0,12.0,43.92,23.22,236.2,78.76,112.92,0.0,995.75,0.0,55.701347,13.169366,214.19,NaN,,,60.290325,,0 / 0,29729,2020-12-05 14:34:10:702
-0.7039,-10.4917,-0.3256,-1.9761,-9.5228,-1.2572,1.2866,-0.7175,0.9507,-0.4076,1.2624,0.1647,0.0,10.56,44.1,25.2,241.21,77.57,113.41,0.0,995.76,0.0,55.701347,13.169366,214.19,NaN,,,60.290325,,0 / 0,29829,2020-12-05 14:34:10:802
-0.565,-9.7303,-0.2706,-1.942,-9.4721,-1.6366,0.764,-0.3756,1.3924,-0.2867,1.0651,0.1794,0.0,8.34,43.02,28.38,233.11,74.99,130.12,0.0,995.74,0.0,55.701347,13.169366,214.19,NaN,,,60.290325,,0 / 0,29929,2020-12-05 14:34:10:902
-1.0176,-10.3385,-0.7662,-1.7261,-9.5095,-1.6613,0.7085,-0.829,0.8951,0.1067,0.8501,0.1354,0.0,6.42,41.82,29.7,230.47,75.15,133.41,0.0,995.75,0.0,55.701347,13.169366,214.19,NaN,,,60.290325,,0 / 0,30029,2020-12-05 14:34:11:002
-3.8668,-7.609,-2.5499,-1.9313,-9.5601,-1.0218,-1.5548,2.8729,-1.2479,1.0463,0.9918,0.2985,0.0,5.28,43.5,28.02,246.16,76.83,123.53,0.0,995.76,0.0,55.701347,13.169366,214.19,NaN,,,60.290325,,0 / 0,30129,2020-12-05 14:34:11:102
1.5228,-13.0153,-4.1349,-1.9059,-9.6183,-0.1606,2.9642,-2.626,-4.2138,1.202,0.709,-0.1432,0.0,4.68,45.3,23.52,258.07,77.12,111.75,0.0,995.75,0.0,55.701347,13.169366,214.19,NaN,,,60.290325,,0 / 0,30229,2020-12-05 14:34:11:202
-0.6728,-9.4143,0.2203,-1.4275,-9.7006,-0.1769,-0.1958,1.141,0.5911,0.5667,0.464,-0.1316,0.0,1.86,46.86,21.9,272.1,80.94,99.83,0.0,995.75,0.0,55.701347,13.169366,214.19,NaN,,,60.290325,,0 / 0,30329,2020-12-05 14:34:11:302
-0.1317,-9.3856,0.1077,-1.4834,-9.6928,-0.1379,1.6102,0.2953,0.4133,-0.3661,0.3767,0.3217,0.0,0.6,47.28,20.46,284.75,81.87,88.23,0.0,995.75,0.0,55.701347,13.169366,214.19,NaN,,,60.290325,,0 / 0,30429,2020-12-05 14:34:11:402
-0.407,-9.3616,1.5395,-1.5252,-9.6855,-0.1855,1.2486,0.3321,1.3837,0.2332,0.2172,0.1329,0.0,1.5,46.26,21.12,274.52,80.72,100.79,0.0,995.74,0.0,55.701347,13.169366,214.19,NaN,,,60.290325,,0 / 0,30528,2020-12-05 14:34:11:501
-3.1197,-9.1677,-0.7734,-1.2893,-9.7191,0.2148,-1.6472,1.1807,0.4664,-0.7717,0.3773,-0.1566,0.0,1.26,47.34,19.38,294.89,81.8,76.93,0.0,995.76,0.0,55.701347,13.169366,214.19,NaN,,,60.290325,,0 / 0,30629,2020-12-05 14:34:11:602
-2.8803,-8.8468,-2.9474,-1.3509,-9.7087,-0.2944,-0.3945,1.7861,-1.1459,-0.432,0.4457,-0.0344,0.0,-0.3,45.84,21.18,280.61,82.01,96.87,0.0,995.76,0.0,55.701347,13.169366,214.19,NaN,,,60.290325,,0 / 0,30729,2020-12-05 14:34:11:702
-2.0519,-8.6146,0.0982,-1.5267,-9.6603,-0.7191,-0.6887,0.7321,0.4531,-0.0069,0.3889,0.0767,0.0,-0.3,45.06,23.94,267.39,81.25,110.55,0.0,995.75,0.0,55.701347,13.169366,214.19,NaN,,,60.290325,,0 / 0,30829,2020-12-05 14:34:11:802
-1.6736,-9.4239,-0.3041,-1.6871,-9.6251,-0.8252,0.3128,0.2327,0.5549,-0.2848,0.3095,0.0828,0.0,-0.96,44.52,24.12,268.73,79.46,114.07,0.0,995.74,0.0,55.701347,13.169366,214.19,NaN,,,60.290325,,0 / 0,30929,2020-12-05 14:34:11:902
-2.4829,-9.4789,-1.0008,-1.792,-9.5658,-1.206,-0.9437,0.025,0.3299,-0.2671,0.4377,0.1427,0.0,-1.44,43.92,26.64,263.49,78.23,120.78,0.0,995.72,0.0,55.701347,13.169366,214.19,NaN,,,60.290325,,0 / 0,31029,2020-12-05 14:34:12:002
-1.6592,-10.0105,-0.6919,-1.8662,-9.505,-1.5305,-0.0111,-0.4968,0.9307,-0.3435,0.7389,0.0376,0.0,-1.92,43.08,27.42,259.84,76.18,127.29,0.0,995.72,0.0,55.701347,13.169366,214.19,NaN,,,60.290325,,0 / 0,31129,2020-12-05 14:34:12:102
-1.0846,-8.9259,-0.1437,-1.742,-9.4759,-1.8281,0.1218,0.4968,1.6514,-0.1975,0.731,0.0382,0.0,-3.78,40.5,30.12,253.89,75.17,134.51,0.0,995.74,0.0,55.701347,13.169366,214.19,NaN,,,60.290325,,0 / 0,31231,2020-12-05 14:34:12:204
-2.1596,-8.9905,-2.514,-1.7678,-9.5048,-1.6444,-0.4521,0.3573,-0.7033,0.3755,0.1152,0.0718,0.0,-3.72,40.68,30.84,249.56,75.12,137.41,0.0,995.75,0.0,55.701347,13.169366,214.19,NaN,,,60.290325,,0 / 0,31329,2020-12-05 14:34:12:302
-0.7279,-9.953,-1.4078,-1.6853,-9.6058,-1.0288,0.8616,-0.0329,0.0031,0.9271,-0.437,-0.1817,0.0,-3.72,40.68,30.06,262.37,78.38,121.4,0.0,995.74,0.0,55.701347,13.169366,214.19,NaN,,,60.290325,,0 / 0,31429,2020-12-05 14:34:12:402
-1.0367,-9.4287,-0.498,-1.2901,-9.7135,-0.3916,0.3351,0.1633,0.3982,0.6364,-1.2989,-0.4254,0.0,-3.24,42.96,27.9,268.98,80.76,111.54,0.0,995.74,0.0,55.701347,13.169366,214.19,NaN,,,60.290325,,0 / 0,31528,2020-12-05 14:34:12:501
-0.6465,-10.0105,-0.4453,-0.9377,-9.7589,0.2343,0.1046,-0.2996,-0.799,0.188,-1.6752,-0.2886,0.0,-1.38,44.52,26.1,287.44,83.83,86.13,0.0,995.73,0.0,55.701347,13.169366,214.19,NaN,,,60.290325,,0 / 0,31628,2020-12-05 14:34:12:601
-1.4868,-8.957,1.4222,-0.8554,-9.7693,0.0059,-0.6407,0.8557,1.174,-0.5811,-1.7522,0.114,0.0,1.8,45.06,27.6,295.52,84.75,72.32,0.0,995.72,0.0,55.701347,13.169366,214.19,NaN,,,60.290325,,0 / 0,31728,2020-12-05 14:34:12:701
-2.1309,-9.7615,1.4701,-0.9786,-9.7577,0.0205,-1.2853,0.3914,1.4253,0.0872,-1.4107,0.136,0.0,8.58,43.68,31.08,258.36,84.44,92.96,0.0,995.74,0.0,55.701347,13.169366,214.19,NaN,,,60.290325,,0 / 0,31828,2020-12-05 14:34:12:801
-2.8444,-9.2658,-0.1844,-1.2237,-9.7251,0.31,-1.6704,-0.1315,-0.5621,-0.6214,-1.1652,0.0914,0.0,15.0,43.56,29.82,271.54,82.71,75.33,0.0,995.75,0.0,55.701347,13.169366,214.19,NaN,,,60.290325,,0 / 0,31929,2020-12-05 14:34:12:902
-1.3336,-8.7726,-1.9944,-1.3744,-9.704,-0.3363,0.0721,0.6806,-1.1565,-0.7943,-1.7925,0.012,0.0,21.66,42.24,29.76,234.23,82.02,97.13,0.0,995.75,0.0,55.701347,13.169366,214.19,NaN,,,60.290325,,0 / 0,32028,2020-12-05 14:34:13:001
-2.6098,-8.7607,2.0543,-1.5296,-9.6485,-0.8586,-0.9387,0.9203,2.5044,-0.5909,-1.6477,-0.0638,0.0,26.4,40.38,29.04,201.91,80.14,120.27,0.0,995.75,0.0,55.701347,13.169366,214.19,NaN,,,60.290325,,0 / 0,32129,2020-12-05 14:34:13:102
-2.7199,-9.3209,-0.5459,-1.8332,-9.6159,-0.5871,-0.2736,0.1334,-0.2387,-0.2378,-1.4217,0.0578,0.0,30.06,40.32,25.26,201.83,79.64,115.33,0.0,995.76,0.0,55.701347,13.169366,214.19,NaN,,,60.290325,,0 / 0,32228,2020-12-05 14:34:13:201
-2.5547,-9.4382,0.5938,-2.0309,-9.5469,-0.9495,-0.8118,-0.0247,1.387,-0.7143,-0.8225,-0.0894,0.0,32.7,38.4,22.92,196.38,77.22,112.27,0.0,995.72,0.0,55.701347,13.169366,214.19,NaN,,,60.290325,,0 / 0,32330,2020-12-05 14:34:13:303
-2.8564,-9.6178,-0.431,-2.0605,-9.5082,-1.2324,-0.7959,-0.1096,0.8015,-0.6403,-0.6942,-0.1523,0.0,33.24,37.44,23.46,188.85,76.25,118.2,0.0,995.7,0.0,55.701347,13.169366,214.19,NaN,,,60.290325,,0 / 0,32429,2020-12-05 14:34:13:402
-2.9162,-9.0887,-0.3974,-2.1144,-9.4671,-1.4399,-0.8019,0.3784,1.0425,-0.3636,-0.3136,-0.1334,0.0,36.9,34.8,24.72,180.93,75.17,123.33,0.0,995.72,0.0,55.701347,13.169366,214.19,NaN,,,60.290325,,0 / 0,32529,2020-12-05 14:34:13:502
-1.19,-10.1421,-1.269,-2.0771,-9.4958,-1.2982,0.8871,-0.6463,0.0293,-0.005,-1.087,-0.4926,0.0,41.7,32.22,23.22,174.57,75.01,123.02,0.0,995.73,0.0,55.701347,13.169366,214.19,NaN,,,60.290325,,0 / 0,32628,2020-12-05 14:34:13:601
-3.4645,-7.5491,-0.6584,-1.5655,-9.6248,-1.0405,-1.899,2.0756,0.382,0.5087,-1.178,-0.6074,0.0,48.0,33.3,12.72,164.53,76.47,122.58,0.0,995.73,0.0,55.701347,13.169366,214.19,NaN,,,60.290325,,0 / 0,32728,2020-12-05 14:34:13:701
-0.8404,-10.4223,-1.9585,-1.3539,-9.7126,-0.0409,0.5135,-0.7096,-1.9176,0.6492,-1.5818,-0.4755,0.0,46.86,36.06,-6.54,162.34,81.36,97.02,0.0,995.75,0.0,55.701347,13.169366,214.19,NaN,,,60.290325,,0 / 0,32830,2020-12-05 14:34:13:803
-1.8699,-9.7758,0.9553,-1.0031,-9.7516,0.2643,-0.6322,0.1649,0.8635,0.3841,-1.8444,-0.3967,0.0,34.14,37.38,-23.16,148.91,82.75,90.58,0.0,995.76,0.0,55.701347,13.169366,214.19,NaN,,,60.290325,,0 / 0,32930,2020-12-05 14:34:13:903
-1.6209,-9.4502,0.8236,-0.8503,-9.7501,0.619,-0.7707,0.2999,0.2046,-0.2042,-1.7088,0.0627,0.0,17.4,38.34,-27.48,155.03,83.84,53.94,0.0,995.74,0.0,55.701347,13.169366,214.19,NaN,,,60.290325,,0 / 0,33029,2020-12-05 14:34:14:002
-1.6377,-8.9713,2.1046,-0.9274,-9.7472,0.5499,-0.7103,0.7758,1.5547,-0.1199,-1.6105,0.1763,0.0,9.0,39.78,-22.32,140.04,83.83,58.4,0.0,995.75,0.0,55.701347,13.169366,214.19,NaN,,,60.290325,,0 / 0,33129,2020-12-05 14:34:14:102
-1.1995,-12.285,2.526,-1.2532,-9.6906,0.8319,0.0537,-2.5944,1.6941,-0.173,-1.9196,0.4042,0.0,6.24,39.6,-18.12,133.94,83.25,58.59,0.0,995.77,0.0,55.701347,13.169366,214.19,NaN,,,60.290325,,0 / 0,33229,2020-12-05 14:34:14:202
-1.7119,-7.8412,1.1852,-1.0699,-9.7287,0.6152,-0.4337,2.0235,0.527,-0.9378,-1.4352,-0.0161,0.0,6.6,38.64,-10.62,141.59,81.8,52.48,0.0,995.8,0.0,55.701347,13.169366,214.19,NaN,,,60.290325,,0 / 0,33329,2020-12-05 14:34:14:302
-0.8476,-7.8556,0.8667,-1.1933,-9.7252,-0.408,-0.0378,1.0999,-1.1568,-1.1565,-2.1798,-0.043,0.0,7.14,39.12,-6.78,103.69,83.09,93.59,0.0,995.8,0.0,55.701347,13.169366,214.19,NaN,,,60.290325,,0 / 0,33429,2020-12-05 14:34:14:402
-4.2738,-9.4957,-0.5866,-1.4326,-9.6813,-0.6251,-2.3557,0.1048,-0.2444,-0.3251,-1.8732,0.0957,0.0,6.9,38.76,-3.42,82.34,82.04,115.93,0.0,995.78,0.0,55.701347,13.169366,214.19,NaN,,,60.290325,,0 / 0,33529,2020-12-05 14:34:14:502
-2.8588,-10.5444,-0.6105,-1.8148,-9.6088,-0.7401,-1.0244,-0.9416,0.1591,-0.5903,-1.5005,-0.0265,0.0,7.8,37.38,-3.0,77.87,78.47,112.19,0.0,995.76,0.0,55.701347,13.169366,214.19,NaN,,,60.290325,,0 / 0,33629,2020-12-05 14:34:14:602
-2.684,-8.6529,0.8619,-1.9445,-9.5513,-1.0774,-0.7294,0.8941,1.9597,-0.6837,-0.8683,-0.1701,0.0,7.8,37.44,-1.2,67.71,77.41,117.1,0.0,995.72,0.0,55.701347,13.169366,214.19,NaN,,,60.290325,,0 / 0,33728,2020-12-05 14:34:14:701
-2.7678,-10.3169,-0.3735,-1.766,-9.5713,-1.2004,-1.4351,0.3044,0.4242,-0.3881,-0.5683,-0.5525,0.0,7.56,37.08,-0.24,57.32,77.19,121.46,0.0,995.71,0.0,55.701347,13.169366,214.19,NaN,,,60.290325,,0 / 0,33829,2020-12-05 14:34:14:802
-3.1916,-7.7215,-1.9465,-1.6536,-9.6393,-0.7212,-1.538,1.9177,-1.2254,0.6254,-1.0986,-0.3686,0.0,6.84,37.74,-0.54,74.72,77.98,124.05,0.0,995.72,0.0,55.701347,13.169366,214.19,NaN,,,60.290325,,0 / 0,33929,2020-12-05 14:34:14:902
-1.1469,-11.3824,-2.7007,-1.5287,-9.6867,0.014,0.7327,-2.7653,-2.6906,0.7518,-1.2501,-0.3955,0.0,5.34,38.04,-4.44,76.5,81.03,89.47,0.0,995.72,0.0,55.701347,13.169366,214.19,NaN,,,60.290325,,0 / 0,34029,2020-12-05 14:34:15:002
-1.846,-9.4167,0.4765,-1.0752,-9.7425,0.3113,-0.9085,-0.0876,0.0888,0.5289,-1.2782,-0.2904,0.0,3.06,38.52,-6.96,87.82,82.51,83.7,0.0,995.74,0.0,55.701347,13.169366,214.19,NaN,,,60.290325,,0 / 0,34129,2020-12-05 14:34:15:102
-1.3192,-9.4071,-0.0814,-0.9858,-9.7343,0.6649,-0.2552,0.4077,-0.687,-0.0478,-1.0454,0.1109,0.0,1.68,38.1,-9.66,109.85,83.04,56.0,0.0,995.75,0.0,55.701347,13.169366,214.19,NaN,,,60.290325,,0 / 0,34229,2020-12-05 14:34:15:202
-0.7638,-9.5723,1.6113,-1.1753,-9.7231,0.5008,0.5282,0.1623,1.2801,-0.2066,-0.9758,0.3168,0.0,1.02,38.88,-9.06,99.64,82.81,63.19,0.0,995.76,0.0,55.701347,13.169366,214.19,NaN,,,60.290325,,0 / 0,34329,2020-12-05 14:34:15:302
0.4525,-10.4175,2.4039,-1.299,-9.6727,0.9597,0.7883,0.0418,1.4681,0.2454,-0.9092,0.194,0.0,1.5,39.66,-10.5,95.11,81.19,58.89,0.0,995.78,0.0,55.701347,13.169366,214.19,NaN,,,60.290325,,0 / 0,34429,2020-12-05 14:34:15:402
-1.7574,-9.1078,0.103,-1.1701,-9.7083,0.7412,-1.7325,-0.0929,-0.535,-0.8083,-0.3161,0.0468,0.0,1.32,40.92,-11.88,103.61,80.07,47.92,0.0,995.79,0.0,55.701347,13.169366,214.19,NaN,,,60.290325,,0 / 0,34530,2020-12-05 14:34:15:503
-2.7558,-8.8037,-2.3919,-1.2402,-9.7275,0.0867,-1.5864,0.7725,0.3136,-0.8767,-0.4889,-0.0057,0.0,1.38,41.88,-9.0,67.38,82.72,86.0,0.0,995.78,0.0,55.701347,13.169366,214.19,NaN,,,60.290325,,0 / 0,34629,2020-12-05 14:34:15:602
-3.3879,-9.4406,-1.6497,-1.5136,-9.6804,-0.4105,-1.7891,0.382,-1.3197,-0.1498,-0.1071,0.0865,0.0,0.36,43.86,-7.08,53.71,81.71,103.04,0.0,995.79,0.0,55.701347,13.169366,214.19,NaN,,,60.290325,,0 / 0,34729,2020-12-05 14:34:15:702
-1.1852,-10.2164,-1.1421,-1.729,-9.6313,-0.6466,0.739,-0.3943,-0.4093,-0.2097,0.0663,0.0999,0.0,0.48,44.94,-7.32,32.74,79.52,108.24,0.0,995.77,0.0,55.701347,13.169366,214.19,NaN,,,60.290325,,0 / 0,34829,2020-12-05 14:34:15:802
-2.6217,-10.0727,-0.9505,-1.8021,-9.5642,-1.2035,-0.7582,-0.4001,0.1814,-0.6465,0.3522,0.1879,0.0,0.96,45.3,-5.82,29.29,78.64,114.94,0.0,995.73,0.0,55.701347,13.169366,214.19,NaN,,,60.290325,,0 / 0,34929,2020-12-05 14:34:15:902
-0.5243,-8.799,-0.2251,-1.8821,-9.4923,-1.5888,1.1572,0.509,1.109,-0.2879,0.3119,0.0144,0.0,2.58,47.34,-2.34,17.73,75.45,130.17,0.0,995.74,0.0,55.701347,13.169366,214.19,NaN,,,60.290325,,0 / 0,35029,2020-12-05 14:34:16:002
-1.5395,-10.9418,-2.5044,-1.8342,-9.5008,-1.5937,0.1788,-1.4496,0.9973,0.097,-0.3136,0.1665,0.0,2.16,46.86,-1.5,13.59,75.44,132.46,0.0,995.76,0.0,55.701347,13.169366,214.19,NaN,,,60.290325,,0 / 0,35128,2020-12-05 14:34:16:101
-3.6537,-7.1325,-2.6337,-1.8875,-9.5441,-1.2322,-2.2204,2.0987,-1.9027,0.6193,-0.1273,-0.1181,0.0,3.3,47.04,-2.76,22.64,76.71,123.14,0.0,995.76,0.0,55.701347,13.169366,214.19,NaN,,,60.290325,,0 / 0,35228,2020-12-05 14:34:16:201
0.1891,-10.5659,-2.6217,-2.0511,-9.5821,-0.3817,1.8645,-0.3881,-2.2629,0.739,-0.6349,-0.3179,0.0,3.06,47.58,-7.8,31.61,77.0,106.89,0.0,995.77,0.0,55.701347,13.169366,214.19,NaN,,,60.290325,,0 / 0,35329,2020-12-05 14:34:16:302
-2.2578,-9.0791,0.5387,-1.5645,-9.6807,-0.0775,-0.5989,0.3235,0.0828,0.7359,-0.8799,-0.2537,0.0,1.2,47.1,-10.86,57.4,80.81,92.83,0.0,995.78,0.0,55.701347,13.169366,214.19,NaN,,,60.290325,,0 / 0,35429,2020-12-05 14:34:16:402
-1.3599,-9.5627,-0.067,-1.4498,-9.6917,0.372,0.0494,0.0356,-0.487,0.0499,-0.3741,-0.0161,0.0,-0.96,46.32,-12.9,71.15,81.19,77.85,0.0,995.75,0.0,55.701347,13.169366,214.19,NaN,,,60.290325,,0 / 0,35529,2020-12-05 14:34:16:502
-0.4956,-9.273,1.7287,-1.7163,-9.6536,0.1796,1.1944,0.3854,1.5611,-0.1779,-0.6661,0.4329,0.0,-0.48,46.92,-12.78,63.56,80.4,83.67,0.0,995.77,0.0,55.701347,13.169366,214.19,NaN,,,60.290325,,0 / 0,35629,2020-12-05 14:34:16:602
-0.9026,-10.2475,2.4805,-1.7642,-9.6365,0.4419,0.4516,-0.6,1.2697,0.21,-0.3863,0.0749,0.0,0.36,47.16,-12.78,60.06,79.55,81.81,0.0,995.77,0.0,55.701347,13.169366,214.19,NaN,,,60.290325,,0 / 0,35729,2020-12-05 14:34:16:702
-4.518,-8.8085,-0.4453,-1.6474,-9.6628,0.2934,-2.864,0.8473,-0.8921,-0.79,0.004,-0.0412,0.0,0.36,46.86,-12.48,67.65,79.41,70.17,0.0,995.79,0.0,55.701347,13.169366,214.19,NaN,,,60.290325,,0 / 0,35828,2020-12-05 14:34:16:801
-4.0559,-10.0823,-2.8636,-1.7138,-9.6548,-0.1366,-1.9635,-0.2542,-3.3779,-0.5652,0.0682,-0.0412,0.0,0.66,48.36,-10.56,56.54,79.85,88.84,0.0,995.77,0.0,55.701347,13.169366,214.19,NaN,,,60.290325,,0 / 0,35928,2020-12-05 14:34:16:901
-3.012,-8.1525,-0.9098,-1.9398,-9.5685,-0.9222,-0.9809,1.6467,0.3673,-0.0588,0.6632,0.1317,0.0,1.5,48.6,-7.8,35.74,78.41,112.37,0.0,995.76,0.0,55.701347,13.169366,214.19,NaN,,,60.290325,,0 / 0,36029,2020-12-05 14:34:17:002
-1.1253,-9.941,-0.9912,-2.1343,-9.4855,-1.2807,0.772,-0.4492,0.2558,-0.5035,0.7249,0.1128,0.0,2.88,48.78,-7.14,31.19,75.94,118.11,0.0,995.79,0.0,55.701347,13.169366,214.19,NaN,,,60.290325,,0 / 0,36129,2020-12-05 14:34:17:102
-2.1429,-9.7782,-0.4908,-2.1229,-9.4053,-1.7896,-0.1128,-0.4813,1.1698,-0.3282,1.0236,0.1928,0.0,4.2,49.68,-5.46,25.6,74.67,124.66,0.0,995.76,0.0,55.701347,13.169366,214.19,NaN,,,60.290325,,0 / 0,36228,2020-12-05 14:34:17:201
-0.1221,-10.0847,-0.6081,-1.9593,-9.4001,-1.9924,1.7978,-0.4552,1.42,-0.1706,0.9106,0.078,0.0,5.94,48.84,-2.88,27.4,72.95,133.05,0.0,995.73,0.0,55.701347,13.169366,214.19,NaN,,,60.290325,,0 / 0,36328,2020-12-05 14:34:17:301
-2.2339,-10.6354,-3.4286,-1.8732,-9.4871,-1.6297,-0.1846,-1.308,-1.1741,0.8092,0.0761,0.271,0.0,6.42,49.5,-2.34,27.46,73.89,136.76,0.0,995.75,0.0,55.701347,13.169366,214.19,NaN,,,60.290325,,0 / 0,36429,2020-12-05 14:34:17:402
-2.3464,-8.3943,-1.0894,-2.0466,-9.5519,-0.8622,-0.2997,1.1575,-0.2272,1.5288,0.1341,0.0315,0.0,7.5,48.42,-7.32,56.46,76.91,112.84,0.0,995.76,0.0,55.701347,13.169366,214.19,NaN,,,60.290325,,0 / 0,36529,2020-12-05 14:34:17:502
-0.85,-8.21,-0.0527,-1.6588,-9.6641,-0.1521,0.8088,1.4542,0.0995,0.2155,0.0932,-0.5879,0.0,8.4,46.08,-12.54,79.08,77.71,95.98,0.0,995.76,0.0,55.701347,13.169366,214.19,NaN,,,60.290325,,0 / 0,36629,2020-12-05 14:34:17:602
-0.9433,-9.7519,-0.0455,-1.2687,-9.7234,0.1271,-0.005,0.0697,-0.0792,0.4103,-0.3106,-0.1157,0.0,5.88,46.38,-15.48,95.66,82.53,84.28,0.0,995.77,0.0,55.701347,13.169366,214.19,NaN,,,60.290325,,0 / 0,36728,2020-12-05 14:34:17:701
-0.2969,-9.2778,0.668,-1.3402,-9.7146,-0.0117,1.0433,0.4368,0.6797,-0.4259,-0.5903,0.2777,0.0,5.22,46.32,-15.9,95.13,82.56,81.26,0.0,995.76,0.0,55.701347,13.169366,214.19,NaN,,,60.290325,,0 / 0,36830,2020-12-05 14:34:17:803
-0.6656,-9.716,1.822,-1.3864,-9.7081,0.0245,0.2085,-0.0677,1.5653,0.089,-0.415,0.0352,0.0,5.04,46.86,-15.42,84.5,81.87,88.99,0.0,995.77,0.0,55.701347,13.169366,214.19,NaN,,,60.290325,,0 / 0,36930,2020-12-05 14:34:17:903
-3.783,-8.7247,-1.2905,-1.2764,-9.7169,0.3517,-3.9527,-3.0255,-3.3326,-1.1938,-0.0222,-0.4187,0.0,5.58,46.44,-16.74,92.93,81.93,85.19,0.0,995.78,0.0,55.701347,13.169366,214.19,NaN,,,60.290325,,0 / 0,37029,2020-12-05 14:34:18:002
-0.8643,-8.9761,-3.0551,-1.1113,-9.7358,-0.3866,0.2757,0.7608,-2.8036,-0.5108,-0.0393,-0.1639,0.0,4.38,48.12,-15.3,89.95,83.16,87.88,0.0,995.77,0.0,55.701347,13.169366,214.19,NaN,,,60.290325,,0 / 0,37129,2020-12-05 14:34:18:102
-2.7127,-7.9203,-0.3041,-1.3206,-9.646,-1.1752,-0.8552,1.7911,1.5676,-0.2524,0.048,0.1678,0.0,4.38,49.26,-11.82,42.18,80.58,131.3,0.0,995.77,0.0,55.701347,13.169366,214.19,NaN,,,60.290325,,0 / 0,37229,2020-12-05 14:34:18:202
-1.5156,-9.522,-1.2163,-1.6657,-9.5791,-1.2788,-0.3592,0.3725,0.2584,-0.225,0.1922,0.1824,0.0,5.28,50.52,-10.32,38.02,78.35,128.77,0.0,995.8,0.0,55.701347,13.169366,214.19,NaN,,,60.290325,,0 / 0,37329,2020-12-05 14:34:18:302
-2.3224,-10.6426,-0.5746,-1.8112,-9.4672,-1.8059,-0.5147,-1.157,1.1361,-0.5389,0.4439,0.0859,0.0,5.52,50.4,-8.1,36.46,75.52,132.61,0.0,995.76,0.0,55.701347,13.169366,214.19,NaN,,,60.290325,,0 / 0,37429,2020-12-05 14:34:18:402
-0.0359,-9.3233,0.1915,-1.7514,-9.442,-1.9878,1.0149,0.7683,2.4503,-0.1688,0.4286,0.0187,0.0,6.96,51.3,-6.42,31.78,74.32,137.08,0.0,995.75,0.0,55.701347,13.169366,214.19,NaN,,,60.290325,,0 / 0,37529,2020-12-05 14:34:18:502
-2.8588,-10.9849,-2.9689,-1.7528,-9.5345,-1.4804,-1.0935,-1.4407,-1.5686,0.6858,-0.5421,0.1494,0.0,8.04,51.06,-4.86,41.24,75.81,135.3,0.0,995.76,0.0,55.701347,13.169366,214.19,NaN,,,60.290325,,0 / 0,37629,2020-12-05 14:34:18:602
-2.3464,-7.3145,-1.3288,-1.8894,-9.5851,-0.8521,0.1647,0.6405,-0.0833,1.0976,-0.2489,0.1109,0.0,7.56,50.16,-11.58,59.86,77.8,114.27,0.0,995.76,0.0,55.701347,13.169366,214.19,NaN,,,60.290325,,0 / 0,37729,2020-12-05 14:34:18:702
-0.2059,-8.3417,-0.6776,-1.6424,-9.6676,-0.1033,1.9247,0.333,-1.8429,0.2362,-0.5207,-0.5494,0.0,7.5,47.7,-17.1,72.3,78.15,96.91,0.0,995.77,0.0,55.701347,13.169366,214.19,NaN,,,60.290325,,0 / 0,37828,2020-12-05 14:34:18:801
-1.5778,-9.6489,0.3208,-1.254,-9.7252,0.1383,-0.496,0.2599,0.4058,0.3596,-0.726,-0.0546,0.0,4.56,46.74,-18.84,85.83,82.38,90.33,0.0,995.78,0.0,55.701347,13.169366,214.19,NaN,,,60.290325,,0 / 0,37928,2020-12-05 14:34:18:901
-0.6848,-9.2826,0.7757,-1.3877,-9.707,0.138,0.846,0.1625,1.324,-0.4724,-0.6979,0.42,0.0,2.76,45.96,-19.68,91.81,82.56,79.43,0.0,995.75,0.0,55.701347,13.169366,214.19,NaN,,,60.290325,,0 / 0,38029,2020-12-05 14:34:19:002
0.1987,-10.633,2.0543,-1.5746,-9.6734,0.3414,1.2782,-0.8383,1.6425,0.2949,-0.4425,0.0951,0.0,3.24,45.84,-19.68,83.29,80.7,83.61,0.0,995.77,0.0,55.701347,13.169366,214.19,NaN,,,60.290325,,0 / 0,38129,2020-12-05 14:34:19:102
-4.1445,-7.937,0.4262,-1.3737,-9.7049,0.3135,-3.1023,1.295,-1.1591,-0.7815,-0.0968,-0.1939,0.0,3.12,44.82,-20.22,94.52,80.33,71.75,0.0,995.78,0.0,55.701347,13.169366,214.19,NaN,,,60.290325,,0 / 0,38229,2020-12-05 14:34:19:202
-1.3145,-8.9067,-3.9075,-1.37,-9.7096,-0.1322,0.0555,0.8029,-3.7752,-0.6776,-0.2721,-0.0259,0.0,2.04,45.78,-17.46,70.38,81.93,95.51,0.0,995.75,0.0,55.701347,13.169366,214.19,NaN,,,60.290325,,0 / 0,38328,2020-12-05 14:34:19:301
-3.1844,-8.0041,-0.5172,-1.7017,-9.6021,-1.0359,-1.0129,2.0989,2.4335,-0.2805,0.3822,0.1195,0.0,2.58,46.02,-14.04,49.77,80.11,118.54,0.0,995.77,0.0,55.701347,13.169366,214.19,NaN,,,60.290325,,0 / 0,38428,2020-12-05 14:34:19:401
-0.747,-10.0871,-1.2259,-2.0331,-9.5031,-1.3147,1.2861,-0.584,0.0888,-0.2946,0.6381,0.2307,0.0,4.92,45.48,-12.84,47.53,76.67,120.39,0.0,995.76,0.0,55.701347,13.169366,214.19,NaN,,,60.290325,,0 / 0,38528,2020-12-05 14:34:19:501
-1.9202,-9.8644,-0.6919,-2.0491,-9.401,-1.8952,0.1288,-0.4634,1.2033,-0.4992,0.7762,0.1696,0.0,6.66,46.56,-10.62,42.24,74.92,126.66,0.0,995.73,0.0,55.701347,13.169366,214.19,NaN,,,60.290325,,0 / 0,38629,2020-12-05 14:34:19:602
0.1389,-9.7351,-0.5459,-1.9451,-9.3864,-2.0695,2.084,-0.3488,1.5236,-0.1767,0.5385,0.0963,0.0,9.24,45.66,-6.78,42.69,73.17,136.77,0.0,995.74,0.0,55.701347,13.169366,214.19,NaN,,,60.290325,,0 / 0,38728,2020-12-05 14:34:19:701
-3.6369,-9.5101,-2.8205,-1.9206,-9.489,-1.5622,-1.7163,-0.0211,-1.2582,0.6901,-0.0735,0.1965,0.0,10.26,45.06,-6.06,48.94,74.11,136.71,0.0,995.76,0.0,55.701347,13.169366,214.19,NaN,,,60.290325,,0 / 0,38829,2020-12-05 14:34:19:802
-2.0926,-8.7247,-0.8835,-2.0883,-9.5402,-0.8908,-0.0043,0.8155,0.0073,1.3376,-0.0137,0.169,0.0,11.4,42.72,-8.82,68.7,76.62,120.62,0.0,995.75,0.0,55.701347,13.169366,214.19,NaN,,,60.290325,,0 / 0,38929,2020-12-05 14:34:19:902
0.5698,-9.4789,-2.0471,-1.8444,-9.6298,-0.1876,2.4142,0.1509,-1.8595,0.1776,-0.2342,-0.6264,0.0,12.48,40.2,-14.4,100.22,77.73,96.06,0.0,995.78,0.0,55.701347,13.169366,214.19,NaN,,,60.290325,,0 / 0,39029,2020-12-05 14:34:20:002
-1.3288,-9.5891,0.0215,-1.2809,-9.7226,-0.0387,-0.3999,0.4495,0.168,0.392,-0.3991,-0.0662,0.0,10.56,39.96,-13.02,111.63,82.49,91.73,0.0,995.78,0.0,55.701347,13.169366,214.19,NaN,,,60.290325,,0 / 0,39128,2020-12-05 14:34:20:101
-0.0359,-9.4287,1.3671,-1.4432,-9.6998,0.0141,1.4073,0.2712,1.3531,-0.3795,-0.5256,0.3492,0.0,10.2,40.08,-12.54,121.31,82.42,83.24,0.0,995.78,0.0,55.701347,13.169366,214.19,NaN,,,60.290325,,0 / 0,39229,2020-12-05 14:34:20:202
-0.0694,-10.5947,2.0232,-1.4175,-9.6982,0.3245,1.3481,-0.8964,1.6986,0.2356,-0.6575,0.1305,0.0,10.32,38.94,-10.92,117.93,81.5,83.86,0.0,995.79,0.0,55.701347,13.169366,214.19,NaN,,,60.290325,,0 / 0,39329,2020-12-05 14:34:20:302
-1.858,-8.5212,0.8356,-1.1453,-9.7375,0.2008,-3.241,1.573,0.5055,-0.7839,-0.1804,-0.1719,0.0,9.66,39.18,-10.86,136.09,81.41,70.01,0.0,995.8,0.0,55.701347,13.169366,214.19,NaN,,,60.290325,,0 / 0,39428,2020-12-05 14:34:20:401
-2.2961,-8.8445,-3.0479,-1.1115,-9.7391,-0.2914,-0.3131,1.395,-2.9911,-0.8767,-0.4511,0.0554,0.0,7.98,40.14,-6.72,107.62,83.41,96.61,0.0,995.8,0.0,55.701347,13.169366,214.19,NaN,,,60.290325,,0 / 0,39529,2020-12-05 14:34:20:502
-2.6888,-8.2028,-1.0415,-1.3911,-9.6533,-1.0237,-1.5873,1.1129,-0.511,-0.2323,-0.1853,0.0431,0.0,7.98,40.86,-2.94,66.78,80.79,126.22,0.0,995.78,0.0,55.701347,13.169366,214.19,NaN,,,60.290325,,0 / 0,39628,2020-12-05 14:34:20:601
-1.3647,-9.5771,-1.2522,-1.6297,-9.5808,-1.3122,0.2051,0.0037,-0.0765,-0.5542,0.2215,0.0999,0.0,7.08,41.1,-0.84,55.39,78.35,127.51,0.0,995.83,0.0,55.701347,13.169366,214.19,NaN,,,60.290325,,0 / 0,39729,2020-12-05 14:34:20:702
-1.7167,-9.6633,-0.2131,-1.7048,-9.4705,-1.8904,-0.7517,-0.6453,1.4235,-0.553,0.6088,0.1824,0.0,7.92,40.5,2.46,48.76,74.96,137.96,0.0,995.79,0.0,55.701347,13.169366,214.19,NaN,,,60.290325,,0 / 0,39829,2020-12-05 14:34:20:802
-0.3687,-10.9107,-0.1365,-1.7018,-9.4364,-2.0565,1.3331,-1.4744,1.92,-0.3282,0.2417,0.078,0.0,8.16,40.62,5.46,45.87,74.01,139.44,0.0,995.76,0.0,55.701347,13.169366,214.19,NaN,,,60.290325,,0 / 0,39929,2020-12-05 14:34:20:902
-2.5068,-11.2148,-2.9665,-1.6815,-9.5212,-1.6397,-1.4167,-1.0686,-1.2358,0.6132,-0.4547,-0.1835,0.0,7.68,40.86,5.52,67.39,75.43,138.31,0.0,995.76,0.0,55.701347,13.169366,214.19,NaN,,,60.290325,,0 / 0,40029,2020-12-05 14:34:21:002
-1.9633,-9.8213,-1.2115,-1.7929,-9.5833,-1.0563,-0.8527,1.6606,-0.5143,1.2839,-0.6655,0.067,0.0,7.5,40.68,4.02,127.97,77.7,127.13,0.0,995.77,0.0,55.701347,13.169366,214.19,NaN,,,60.290325,,0 / 0,40129,2020-12-05 14:34:21:102
0.8212,-10.621,-2.842,-1.8094,-9.6354,-0.2346,2.6306,-0.9856,-2.6074,0.6694,-0.6985,-0.3661,0.0,7.68,40.74,-0.36,59.33,77.87,111.29,0.0,995.77,0.0,55.701347,13.169366,214.19,NaN,,,60.290325,,0 / 0,40229,2020-12-05 14:34:21:202
-1.6784,-9.273,-0.2801,-1.2275,-9.7281,0.1679,-0.4509,0.455,-0.448,0.323,-0.6899,-0.0864,0.0,4.98,39.78,-2.7,87.5,82.62,88.99,0.0,995.78,0.0,55.701347,13.169366,214.19,NaN,,,60.290325,,0 / 0,40329,2020-12-05 14:34:21:302
-0.5387,-9.4909,1.1588,-1.3731,-9.7094,0.1139,0.8344,0.2185,1.0449,-0.341,-0.6716,0.3284,0.0,5.28,39.6,-4.8,99.02,82.67,79.76,0.0,995.77,0.0,55.701347,13.169366,214.19,NaN,,,60.290325,,0 / 0,40429,2020-12-05 14:34:21:402
-0.7326,-10.3864,2.1908,-1.4817,-9.6903,0.2701,0.749,-0.6961,1.9207,0.2625,-0.6007,0.1232,0.0,5.7,39.24,-3.72,100.93,81.17,79.67,0.0,995.77,0.0,55.701347,13.169366,214.19,NaN,,,60.290325,,0 / 0,40529,2020-12-05 14:34:21:502
-1.9801,-7.7383,-0.5028,-1.1944,-9.7285,0.3169,-1.8726,3.0389,-0.1469,-0.7155,-0.0778,-0.3576,0.0,5.46,39.78,-3.72,118.51,80.67,64.54,0.0,995.79,0.0,55.701347,13.169366,214.19,NaN,,,60.290325,,0 / 0,40629,2020-12-05 14:34:21:602
-4.0703,-9.6322,-3.4142,-1.2864,-9.7182,-0.2686,-2.7839,0.086,-3.1456,-1.024,-0.5201,0.1195,0.0,4.14,39.66,-2.22,55.82,82.3,101.79,0.0,995.78,0.0,55.701347,13.169366,214.19,NaN,,,60.290325,,0 / 0,40729,2020-12-05 14:34:21:702
-2.7103,-7.4558,-0.3711,-1.6226,-9.6298,-0.897,-1.0877,2.174,0.5259,-0.1083,0.5049,0.1415,0.0,3.24,40.14,0.78,7.52,79.74,118.19,0.0,995.77,0.0,55.701347,13.169366,214.19,NaN,,,60.290325,,0 / 0,40828,2020-12-05 14:34:21:801
-0.8619,-10.2188,-0.7159,-1.9403,-9.5401,-1.1799,1.0783,-0.6787,0.464,-0.4882,0.4903,0.1873,0.0,4.08,39.96,2.52,2.79,78.58,118.9,0.0,995.78,0.0,55.701347,13.169366,214.19,NaN,,,60.290325,,0 / 0,40929,2020-12-05 14:34:21:902
-1.743,-9.2395,-0.2538,-1.983,-9.4287,-1.8268,-0.0195,-0.5676,1.1134,-0.4858,0.8073,0.1568,0.0,4.86,40.08,4.86,351.77,74.55,130.47,0.0,995.74,0.0,55.701347,13.169366,214.19,NaN,,,60.290325,,0 / 0,41029,2020-12-05 14:34:22:002
-0.3998,-9.9386,-0.2418,-1.9097,-9.4358,-1.8676,2.0123,-0.706,1.5022,-0.1633,0.4872,0.1592,0.0,4.62,39.78,6.42,340.28,73.85,133.78,0.0,995.75,0.0,55.701347,13.169366,214.19,NaN,,,60.290325,,0 / 0,41129,2020-12-05 14:34:22:102
-3.6321,-9.3784,-2.9952,-1.8965,-9.5236,-1.3687,-2.0813,0.7836,-2.0093,1.0279,-0.0161,-0.1352,0.0,5.16,39.54,6.72,300.57,76.2,125.82,0.0,995.75,0.0,55.701347,13.169366,214.19,NaN,,,60.290325,,0 / 0,41228,2020-12-05 14:34:22:201
-0.0766,-12.6178,-1.4054,-2.1763,-9.5577,-0.2895,2.0997,-3.0601,-1.1159,1.5423,-0.1853,0.1537,0.0,4.44,39.66,1.2,345.11,77.44,114.83,0.0,995.76,0.0,55.701347,13.169366,214.19,NaN,,,60.290325,,0 / 0,41329,2020-12-05 14:34:22:302
-0.577,-7.8891,-0.0814,-1.6942,-9.6592,0.0051,0.4771,1.7809,0.2052,0.3132,-0.0821,-0.5561,0.0,3.6,38.58,-3.12,46.97,80.05,89.83,0.0,995.77,0.0,55.701347,13.169366,214.19,NaN,,,60.290325,,0 / 0,41429,2020-12-05 14:34:22:402
-0.7781,-9.5484,-0.0599,-1.3858,-9.7037,0.2978,-0.2049,0.0933,0.5219,0.4977,-0.2855,-0.1004,0.0,2.4,39.12,-4.68,56.65,81.67,83.39,0.0,995.78,0.0,55.701347,13.169366,214.19,NaN,,,60.290325,,0 / 0,41529,2020-12-05 14:34:22:502
0.0742,-10.1158,1.8268,-1.5723,-9.6793,0.0925,1.6465,-0.4365,1.7344,-0.214,-0.4608,0.3321,0.0,1.5,39.24,-3.96,56.26,81.42,80.91,0.0,995.77,0.0,55.701347,13.169366,214.19,NaN,,,60.290325,,0 / 0,41628,2020-12-05 14:34:22:601
0.486,-11.6865,1.4868,-1.4758,-9.6863,0.4104,1.9618,-2.0002,1.0764,0.3664,-0.0931,0.0633,0.0,2.04,39.72,-3.0,34.05,80.93,79.28,0.0,995.79,0.0,55.701347,13.169366,214.19,NaN,,,60.290325,,0 / 0,41729,2020-12-05 14:34:22:702
-1.5204,-6.9769,0.7255,-1.1585,-9.7368,0.1498,-0.3618,2.7599,0.5757,-0.5286,0.3113,-0.0057,0.0,1.62,40.14,-3.42,45.8,81.11,67.01,0.0,995.8,0.0,55.701347,13.169366,214.19,NaN,,,60.290325,,0 / 0,41829,2020-12-05 14:34:22:802
-3.4071,-9.534,-0.2514,-1.3059,-9.7051,-0.5258,-2.1011,0.171,0.2744,-0.8132,-0.0351,-0.0253,0.0,2.34,40.62,-2.1,31.76,82.51,99.53,0.0,995.78,0.0,55.701347,13.169366,214.19,NaN,,,60.290325,,0 / 0,41928,2020-12-05 14:34:22:901
-3.4837,-8.945,-2.0495,-1.507,-9.6508,-0.8729,-1.9767,0.7058,-1.1766,-0.1052,0.6088,0.0969,0.0,2.46,40.92,-0.18,1.02,80.83,118.53,0.0,995.83,0.0,55.701347,13.169366,214.19,NaN,,,60.290325,,0 / 0,42029,2020-12-05 14:34:23:002
-1.0008,-9.704,-0.9529,-1.8146,-9.5573,-1.2388,0.7683,-0.0796,0.3649,-0.4943,0.7676,0.1745,0.0,2.94,40.86,0.9,7.92,77.05,124.32,0.0,995.81,0.0,55.701347,13.169366,214.19,NaN,,,60.290325,,0 / 0,42129,2020-12-05 14:34:23:102
-1.7215,-9.3808,0.4046,-1.833,-9.4453,-1.8964,0.1115,0.0645,2.3011,-0.4901,0.8983,0.2013,0.0,3.6,41.64,2.34,10.12,75.64,130.94,0.0,995.76,0.0,55.701347,13.169366,214.19,NaN,,,60.290325,,0 / 0,42228,2020-12-05 14:34:23:201
0.2011,-10.4031,-0.1532,-1.7169,-9.4828,-1.8164,2.065,-1.1303,1.4468,-0.1443,0.5123,0.1256,0.0,3.9,39.96,4.8,353.87,74.36,136.62,0.0,995.77,0.0,55.701347,13.169366,214.19,NaN,,,60.290325,,0 / 0,42329,2020-12-05 14:34:23:302
-3.3855,-9.9817,-3.115,-1.6978,-9.5559,-1.4042,-1.6826,-0.4159,-1.7864,0.6309,-0.1181,0.1586,0.0,6.48,40.92,3.3,9.54,76.5,133.74,0.0,995.79,0.0,55.701347,13.169366,214.19,NaN,,,60.290325,,0 / 0,42428,2020-12-05 14:34:23:401
0.2346,-11.7822,-1.3145,-2.0823,-9.5712,-0.4757,-0.192,0.8741,-0.5723,1.3908,-0.3771,0.1354,0.0,6.42,40.38,-1.38,41.63,77.56,111.56,0.0,995.78,0.0,55.701347,13.169366,214.19,NaN,,,60.290325,,0 / 0,42528,2020-12-05 14:34:23:501
-0.5363,-8.0017,0.68,-1.5046,-9.6888,-0.1843,2.4054,1.1589,-1.087,0.1636,-0.1701,-0.5506,0.0,6.54,39.3,-5.46,85.77,78.31,93.6,0.0,995.8,0.0,55.701347,13.169366,214.19,NaN,,,60.290325,,0 / 0,42628,2020-12-05 14:34:23:601
-1.1157,-9.7303,-0.1101,-1.2055,-9.73,0.2112,0.376,0.0693,-0.5126,0.3945,-0.6496,-0.1102,0.0,5.58,39.48,-9.06,100.21,82.71,86.35,0.0,995.79,0.0,55.701347,13.169366,214.19,NaN,,,60.290325,,0 / 0,42729,2020-12-05 14:34:23:702
-0.565,-9.613,1.4414,-1.3027,-9.7194,0.0832,0.8457,0.2472,1.3045,-0.2836,-0.8231,0.2783,0.0,6.3,37.98,-9.6,110.23,82.83,78.85,0.0,995.78,0.0,55.701347,13.169366,214.19,NaN,,,60.290325,,0 / 0,42829,2020-12-05 14:34:23:802
0.522,-11.1118,1.9154,-1.3394,-9.7069,0.3909,1.5455,-0.7901,1.8434,0.2705,-0.6514,0.0853,0.0,7.62,38.46,-10.2,115.48,81.93,80.68,0.0,995.8,0.0,55.701347,13.169366,214.19,NaN,,,60.290325,,0 / 0,42928,2020-12-05 14:34:23:901
-2.4805,-8.3632,-0.0024,-1.076,-9.7471,0.0778,-0.0679,1.2269,-0.452,-0.7112,-0.1768,-0.112,0.0,8.04,37.5,-13.8,127.77,82.08,67.75,0.0,995.8,0.0,55.701347,13.169366,214.19,NaN,,,60.290325,,0 / 0,43029,2020-12-05 14:34:24:002
-3.5004,-9.4885,-0.0742,-1.1864,-9.7228,-0.4796,-2.2442,0.2144,0.5937,-0.743,-0.4425,0.0352,0.0,9.0,38.58,-12.24,84.97,82.5,112.01,0.0,995.78,0.0,55.701347,13.169366,214.19,NaN,,,60.290325,,0 / 0,43129,2020-12-05 14:34:24:102
-2.7989,-8.7894,-1.5994,-1.5103,-9.648,-0.8975,-1.2594,0.8533,-0.6951,-0.1095,-0.0094,0.103,0.0,9.6,39.96,-12.78,69.81,80.31,122.07,0.0,995.78,0.0,55.701347,13.169366,214.19,NaN,,,60.290325,,0 / 0,43228,2020-12-05 14:34:24:201
-2.0112,-10.111,-0.6225,-1.8855,-9.5369,-1.2891,0.0016,-0.4285,0.4806,-0.5915,0.497,0.1745,0.0,10.98,40.2,-12.96,69.68,77.33,121.45,0.0,995.8,0.0,55.701347,13.169366,214.19,NaN,,,60.290325,,0 / 0,43328,2020-12-05 14:34:24:301
-1.822,-9.0982,0.498,-1.9488,-9.4658,-1.6644,0.3227,0.5847,2.4299,-0.3991,0.7939,0.0822,0.0,12.48,41.16,-11.46,63.29,75.24,128.93,0.0,995.77,0.0,55.701347,13.169366,214.19,NaN,,,60.290325,,0 / 0,43428,2020-12-05 14:34:24:401
0.079,-10.2786,-0.316,-1.8292,-9.5191,-1.4871,1.9082,-0.7596,1.1711,0.1257,0.0541,0.0547,0.0,12.24,41.76,-9.12,65.71,76.09,129.11,0.0,995.76,0.0,55.701347,13.169366,214.19,NaN,,,60.290325,,0 / 0,43528,2020-12-05 14:34:24:501
-4.7885,-8.6505,-3.7351,-1.886,-9.5867,-0.8409,-2.6391,0.3089,-2.8224,0.9821,0.2484,0.0688,0.0,12.84,40.98,-12.9,77.85,77.41,119.65,0.0,995.76,0.0,55.701347,13.169366,214.19,NaN,,,60.290325,,0 / 0,43628,2020-12-05 14:34:24:601
0.9864,-11.2315,-2.7558,-2.0639,-9.5857,-0.1589,3.0503,-1.6459,-2.5969,0.7781,0.3321,-0.2318,0.0,12.96,39.18,-17.58,94.77,77.32,97.76,0.0,995.77,0.0,55.701347,13.169366,214.19,NaN,,,60.290325,,0 / 0,43729,2020-12-05 14:34:24:702
-2.0256,-8.684,0.4382,-1.5902,-9.6749,-0.1953,-0.4354,0.9909,0.6334,0.3859,0.1488,-0.1939,0.0,12.48,39.12,-19.38,96.97,79.92,97.36,0.0,995.78,0.0,55.701347,13.169366,214.19,NaN,,,60.290325,,0 / 0,43833,2020-12-05 14:34:24:806
-0.2394,-9.4119,-0.1125,-1.6176,-9.6723,-0.0172,1.2465,0.1455,-0.4449,-0.2512,0.241,0.2918,0.0,12.78,37.26,-22.14,106.33,80.5,90.61,0.0,995.78,0.0,55.701347,13.169366,214.19,NaN,,,60.290325,,0 / 0,43929,2020-12-05 14:34:24:902
-1.4102,-9.5771,1.5012,-1.7211,-9.6516,-0.2315,0.852,0.1823,1.9818,0.0719,-0.0754,0.1867,0.0,14.28,38.16,-22.32,98.73,79.69,98.42,0.0,995.78,0.0,55.701347,13.169366,214.19,NaN,,,60.290325,,0 / 0,44028,2020-12-05 14:34:25:001
-4.0751,-15.3042,-3.4238,-1.5592,-9.6731,0.4121,-2.4488,-2.5712,-3.9198,-0.3483,0.7988,-0.2837,0.0,14.58,37.2,-24.42,111.97,80.03,85.79,0.0,995.8,0.0,55.701347,13.169366,214.19,NaN,,,60.290325,,0 / 0,44129,2020-12-05 14:34:25:102
-1.4078,-7.3935,-1.2714,-1.596,-9.6756,-0.0719,-0.2595,2.2773,-1.47,-0.1816,0.643,-0.0149,0.0,16.08,37.32,-25.2,114.22,80.79,87.52,0.0,995.81,0.0,55.701347,13.169366,214.19,NaN,,,60.290325,,0 / 0,44228,2020-12-05 14:34:25:201
-2.5715,-8.7774,0.5962,-1.8689,-9.6082,-0.5995,-2.2445,0.7686,1.3154,-0.1009,1.4585,0.1897,0.0,18.72,38.34,-24.42,106.94,80.52,97.24,0.0,995.79,0.0,55.701347,13.169366,214.19,NaN,,,60.290325,,0 / 0,44329,2020-12-05 14:34:25:302
-2.253,-10.554,-0.8907,-2.259,-9.5059,-0.8398,0.2837,-1.1534,0.3203,0.0609,1.6405,0.3046,0.0,23.52,38.28,-21.84,103.05,76.43,108.17,0.0,995.82,0.0,55.701347,13.169366,214.19,NaN,,,60.290325,,0 / 0,44428,2020-12-05 14:34:25:401
-1.6784,-8.9067,0.0503,-2.347,-9.4393,-1.2494,0.6494,0.7625,1.2111,0.0835,1.6259,0.3626,0.0,27.54,38.7,-16.98,101.88,75.09,113.68,0.0,995.8,0.0,55.701347,13.169366,214.19,NaN,,,60.290325,,0 / 0,44528,2020-12-05 14:34:25:501
-0.5196,-11.0232,-0.1796,-2.285,-9.4446,-1.3221,2.091,-0.2761,1.6166,0.3468,1.5178,0.0395,0.0,30.72,38.46,-13.74,107.77,74.38,120.05,0.0,995.78,0.0,55.701347,13.169366,214.19,NaN,,,60.290325,,0 / 0,44628,2020-12-05 14:34:25:601
-3.589,-8.5116,-0.4334,-2.0858,-9.5545,-0.7292,-1.5032,1.0428,0.2959,0.7848,1.6784,0.1409,0.0,32.4,37.26,-12.48,120.99,76.23,115.76,0.0,995.8,0.0,55.701347,13.169366,214.19,NaN,,,60.290325,,0 / 0,44728,2020-12-05 14:34:25:701
1.7933,-11.3106,-1.7933,-1.9406,-9.611,0.1812,3.5519,-2.0611,-2.1971,1.6449,1.5,-0.1908,0.0,35.1,36.72,-11.76,149.75,77.74,94.57,0.0,995.81,0.0,55.701347,13.169366,214.19,NaN,,,60.290325,,0 / 0,44829,2020-12-05 14:34:25:802
0.3376,-9.0647,0.328,-1.3379,-9.7104,0.2956,1.2781,0.6673,-0.2118,0.367,0.8843,-0.3295,0.0,36.12,35.7,-12.96,167.18,79.89,80.73,0.0,995.8,0.0,55.701347,13.169366,214.19,NaN,,,60.290325,,0 / 0,44929,2020-12-05 14:34:25:902
0.0479,-9.0168,0.3807,-1.09,-9.744,0.1914,1.1379,0.7271,0.1893,-0.2903,0.45,0.2215,0.0,38.34,36.36,-10.74,177.59,83.57,76.01,0.0,995.81,0.0,55.701347,13.169366,214.19,NaN,,,60.290325,,0 / 0,45029,2020-12-05 14:34:26:002
0.0766,-10.0895,0.8332,-1.1893,-9.7342,0.0096,1.1223,-0.2044,0.498,-0.0551,0.1561,0.2075,0.0,42.48,34.8,-10.08,164.23,82.98,90.33,0.0,995.81,0.0,55.701347,13.169366,214.19,NaN,,,60.290325,,0 / 0,45128,2020-12-05 14:34:26:101
-3.7758,-9.8644,-1.5994,-0.9638,-9.7494,0.4369,-0.9827,-8.0808,-2.4936,0.2185,0.5886,-0.4529,0.0,46.26,33.84,-15.0,167.65,83.29,87.12,0.0,995.83,0.0,55.701347,13.169366,214.19,NaN,,,60.290325,,0 / 0,45229,2020-12-05 14:34:26:202
-1.9322,-8.6888,-2.4829,-1.0979,-9.7447,0.0744,-1.3083,1.1588,-2.72,-0.1089,0.2527,0.2411,0.0,49.26,34.38,-24.42,160.42,83.86,82.1,0.0,995.81,0.0,55.701347,13.169366,214.19,NaN,,,60.290325,,0 / 0,45329,2020-12-05 14:34:26:302
-2.3129,-8.4111,1.2785,-1.3695,-9.6933,-0.5787,-0.68,1.6294,1.6968,-0.1468,0.3553,0.0529,0.0,42.54,37.32,-28.5,138.9,83.21,95.98,0.0,995.8,0.0,55.701347,13.169366,214.19,NaN,,,60.290325,,0 / 0,45428,2020-12-05 14:34:26:401
-2.842,-9.6346,-0.9697,-1.538,-9.6686,-0.5679,-1.304,0.034,-0.4017,0.0341,0.3009,0.1311,0.0,37.92,36.36,-25.92,117.0,80.79,111.85,0.0,995.81,0.0,55.701347,13.169366,214.19,NaN,,,60.290325,,0 / 0,45528,2020-12-05 14:34:26:501
-1.6209,-8.8684,0.3472,-1.9189,-9.5891,-0.7334,0.298,0.7207,1.0805,0.1159,0.8092,0.1274,0.0,30.54,34.02,-16.08,120.05,78.22,112.04,0.0,995.78,0.0,55.701347,13.169366,214.19,NaN,,,60.290325,,0 / 0,45628,2020-12-05 14:34:26:601
-1.3025,-10.5923,-0.9338,-1.6768,-9.6229,-0.8709,0.3743,-0.9694,-0.0629,-0.2121,0.6687,-0.357,0.0,27.9,33.48,-10.02,124.02,78.03,110.96,0.0,995.77,0.0,55.701347,13.169366,214.19,NaN,,,60.290325,,0 / 0,45728,2020-12-05 14:34:26:701
-4.1158,-8.7511,-1.2211,-1.6041,-9.6551,-0.6127,-2.5117,0.9041,-0.6084,0.7897,0.034,0.0859,0.0,24.66,33.72,-6.06,135.79,79.92,110.91,0.0,995.78,0.0,55.701347,13.169366,214.19,NaN,,,60.290325,,0 / 0,45829,2020-12-05 14:34:26:802
-1.4222,-10.8796,-1.7789,-1.6432,-9.6678,-0.0553,0.221,-1.2118,-1.7236,0.4672,-0.1285,-0.1975,0.0,23.16,34.38,-5.7,155.3,79.4,94.21,0.0,995.78,0.0,55.701347,13.169366,214.19,NaN,,,60.290325,,0 / 0,45928,2020-12-05 14:34:26:901
-1.6808,-9.352,-0.759,-1.5151,-9.6883,-0.108,-0.1657,0.3362,-0.651,0.1416,-0.3209,0.0743,0.0,21.96,34.98,-6.18,152.12,81.08,95.93,0.0,995.79,0.0,55.701347,13.169366,214.19,NaN,,,60.290325,,0 / 0,46028,2020-12-05 14:34:27:001
-0.2658,-8.969,0.17,-1.7334,-9.6456,-0.3574,1.4676,0.6766,0.5274,-0.4876,-0.7394,0.191,0.0,21.78,34.98,-6.36,150.4,80.77,93.63,0.0,995.81,0.0,55.701347,13.169366,214.19,NaN,,,60.290325,,0 / 0,46129,2020-12-05 14:34:27:102
-4.4845,-11.8086,-2.5499,-1.9219,-9.6145,-0.1936,-2.5626,-2.194,-2.3563,0.1862,-0.7461,0.2618,0.0,21.48,33.84,-5.22,149.42,78.92,97.82,0.0,995.83,0.0,55.701347,13.169366,214.19,NaN,,,60.290325,,0 / 0,46228,2020-12-05 14:34:27:201
-1.8173,-9.2922,-0.0431,-1.9866,-9.5957,-0.3828,0.1694,0.3035,0.3397,-0.2311,-0.5775,0.1177,0.0,20.64,33.54,-6.06,141.96,78.19,100.09,0.0,995.83,0.0,55.701347,13.169366,214.19,NaN,,,60.290325,,0 / 0,46328,2020-12-05 14:34:27:301
-1.4414,-8.8037,1.1062,-2.1225,-9.5596,-0.5289,0.7482,0.4685,1.8098,-0.283,-1.2623,0.0963,0.0,19.92,32.76,-5.58,141.53,77.79,101.53,0.0,995.81,0.0,55.701347,13.169366,214.19,NaN,,,60.290325,,0 / 0,46428,2020-12-05 14:34:27:401
-3.4525,-9.9817,-0.2945,-2.3267,-9.5171,-0.4255,-1.1258,-0.4646,0.131,-0.5841,-1.4975,0.238,0.0,20.22,31.32,-5.94,138.76,76.63,100.52,0.0,995.79,0.0,55.701347,13.169366,214.19,NaN,,,60.290325,,0 / 0,46528,2020-12-05 14:34:27:501
-2.9354,-9.2251,0.9673,-2.6265,-9.4406,-0.3838,-0.5243,0.1795,1.2099,-0.5102,-1.9617,0.2075,0.0,20.04,30.9,-6.36,136.69,74.78,99.81,0.0,995.76,0.0,55.701347,13.169366,214.19,NaN,,,60.290325,,0 / 0,46628,2020-12-05 14:34:27:601
-4.0415,-9.5125,0.4525,-2.7942,-9.4001,-0.0277,-1.2473,-0.1124,0.4802,-0.418,-2.3124,-0.1212,0.0,19.56,31.2,-9.3,138.1,73.44,90.57,0.0,995.76,0.0,55.701347,13.169366,214.19,NaN,,,60.290325,,0 / 0,46728,2020-12-05 14:34:27:701
-3.3233,-9.1174,1.0607,-2.6401,-9.444,-0.1089,-0.7147,0.335,1.197,-1.0227,-2.065,-0.473,0.0,18.06,32.7,-13.08,119.95,74.37,92.36,0.0,995.75,0.0,55.701347,13.169366,214.19,NaN,,,60.290325,,0 / 0,46832,2020-12-05 14:34:27:805
-3.0886,-9.1198,1.4821,-2.3394,-9.5138,-0.4309,-0.7882,0.4016,1.9525,-1.1425,-1.4846,-0.6722,0.0,13.44,35.88,-14.34,105.66,75.39,97.15,0.0,995.75,0.0,55.701347,13.169366,214.19,NaN,,,60.290325,,0 / 0,46928,2020-12-05 14:34:27:901
-3.0479,-9.467,0.5794,-2.007,-9.578,-0.6358,-0.8131,-0.0234,0.982,-0.7967,-1.7357,-0.5152,0.0,7.68,39.72,-11.22,71.14,77.31,106.64,0.0,995.75,0.0,55.701347,13.169366,214.19,NaN,,,60.290325,,0 / 0,47029,2020-12-05 14:34:28:002
-1.2833,-10.3313,0.0311,-1.7312,-9.6505,-0.2012,0.4495,-0.8533,0.0733,0.1654,-2.6196,-0.7168,0.0,2.64,40.98,-8.7,53.93,78.06,107.07,0.0,995.75,0.0,55.701347,13.169366,214.19,NaN,,,60.290325,,0 / 0,47129,2020-12-05 14:34:28:102
-2.6864,-10.9442,0.4334,-1.1815,-9.7332,0.1964,-1.4574,-1.4214,0.2281,-0.0038,-2.6264,-0.5329,0.0,-1.14,41.28,-7.8,59.82,82.98,80.56,0.0,995.77,0.0,55.701347,13.169366,214.19,NaN,,,60.290325,,0 / 0,47229,2020-12-05 14:34:28:202
-1.8101,-9.2132,1.1301,-0.6725,-9.7655,0.5946,-0.3267,0.9564,0.9208,0.1782,-3.0057,-0.3808,0.0,-5.4,43.2,-5.64,47.69,84.24,69.06,0.0,995.8,0.0,55.701347,13.169366,214.19,NaN,,,60.290325,,0 / 0,47329,2020-12-05 14:34:28:302
-2.0998,-9.8405,1.3671,-0.5285,-9.7478,0.9335,-1.2702,-0.335,0.4504,0.0988,-3.0558,-0.109,0.0,-8.4,44.58,-3.96,58.78,84.15,31.83,0.0,995.81,0.0,55.701347,13.169366,214.19,NaN,,,60.290325,,0 / 0,47429,2020-12-05 14:34:28:402
-2.3368,-9.9961,1.4294,-0.5267,-9.7474,0.9384,-1.8101,-0.2487,0.491,-0.487,-2.8316,0.1171,0.0,-9.6,46.5,-0.12,49.87,83.31,28.4,0.0,995.81,0.0,55.701347,13.169366,214.19,NaN,,,60.290325,,0 / 0,47529,2020-12-05 14:34:28:502
-1.9585,-8.6457,2.2171,-0.7971,-9.7476,0.7203,-1.408,1.0181,1.31,-0.4284,-2.1615,0.2356,0.0,-9.96,47.16,4.68,10.7,83.71,47.9,0.0,995.81,0.0,55.701347,13.169366,214.19,NaN,,,60.290325,,0 / 0,47629,2020-12-05 14:34:28:602
-2.6481,-10.0057,1.5228,-1.1307,-9.7054,0.8352,-1.1749,-0.183,0.9748,-0.3123,-1.9623,0.296,0.0,-7.14,49.08,8.7,354.99,82.4,52.83,0.0,995.82,0.0,55.701347,13.169366,214.19,NaN,,,60.290325,,0 / 0,47729,2020-12-05 14:34:28:702
-0.8284,-8.5356,-0.759,-1.4481,-9.6858,0.5086,0.6197,1.1502,-1.2676,-0.5988,-1.4932,0.2294,0.0,-5.34,48.9,11.22,345.18,81.3,54.99,0.0,995.85,0.0,55.701347,13.169366,214.19,NaN,,,60.290325,,0 / 0,47829,2020-12-05 14:34:28:802
-2.9713,-10.3624,0.0455,-1.4403,-9.7002,0.0324,-1.2293,-0.6047,-0.528,-0.9091,-1.8304,-0.0717,0.0,-3.12,49.92,15.84,310.36,81.25,80.94,0.0,995.85,0.0,55.701347,13.169366,214.19,NaN,,,60.290325,,0 / 0,47929,2020-12-05 14:34:28:902
-3.7997,-8.6912,0.6536,-1.627,-9.6688,-0.1933,-2.0219,0.8842,0.981,-0.1883,-1.1218,0.1189,0.0,-0.72,48.78,20.4,288.9,80.38,96.77,0.0,995.82,0.0,55.701347,13.169366,214.19,NaN,,,60.290325,,0 / 0,48029,2020-12-05 14:34:29:002
-2.9497,-9.2515,0.5483,-2.0962,-9.5756,-0.2906,-0.8535,0.3241,0.8389,-0.5628,-0.5873,0.1299,0.0,1.56,48.12,21.66,286.11,78.0,94.65,0.0,995.79,0.0,55.701347,13.169366,214.19,NaN,,,60.290325,,0 / 0,48129,2020-12-05 14:34:29:102
-2.2793,-8.933,-0.1389,-2.2374,-9.5386,-0.4228,-0.0399,0.6049,0.2881,-0.1407,0.0059,0.015,0.0,2.58,46.86,23.64,282.03,77.11,100.41,0.0,995.77,0.0,55.701347,13.169366,214.19,NaN,,,60.290325,,0 / 0,48228,2020-12-05 14:34:29:201
-2.5403,-10.9897,-2.2722,-2.2429,-9.5418,-0.3061,-0.4288,-1.4727,-2.1502,0.5588,-0.5103,-0.0344,0.0,2.28,45.54,24.42,280.35,76.61,101.16,0.0,995.77,0.0,55.701347,13.169366,214.19,NaN,,,60.290325,,0 / 0,48330,2020-12-05 14:34:29:303
-0.4501,-9.8429,0.1963,-1.9745,-9.6014,0.2917,1.98,0.9135,-0.1359,0.7811,-0.6465,-0.3374,0.0,3.3,44.76,22.62,287.23,77.05,90.08,0.0,995.78,0.0,55.701347,13.169366,214.19,NaN,,,60.290325,,0 / 0,48428,2020-12-05 14:34:29:401
-2.7941,-9.8955,-2.3823,-1.4451,-9.6781,0.6447,-1.2016,0.4461,-2.1928,0.0444,-0.4407,-0.4388,0.0,1.32,45.9,19.68,306.45,79.88,66.47,0.0,995.79,0.0,55.701347,13.169366,214.19,NaN,,,60.290325,,0 / 0,48530,2020-12-05 14:34:29:503
-0.4884,-9.7926,-0.1245,-1.2159,-9.716,0.5387,0.7346,-0.0981,-0.996,0.345,-0.1682,-0.2996,0.0,1.56,45.24,20.46,301.49,81.59,72.16,0.0,995.81,0.0,55.701347,13.169366,214.19,NaN,,,60.290325,,0 / 0,48629,2020-12-05 14:34:29:602
0.2251,-9.5196,-0.1987,-1.0715,-9.7434,0.2978,1.445,0.2405,-0.4079,-0.4791,-0.4914,0.1274,0.0,0.6,45.78,21.6,302.13,83.2,67.24,0.0,995.81,0.0,55.701347,13.169366,214.19,NaN,,,60.290325,,0 / 0,48728,2020-12-05 14:34:29:701
0.2418,-10.2786,-1.1349,-0.9715,-9.7581,-0.0784,1.1439,-0.5182,-0.7836,-0.1058,-0.7327,0.0205,0.0,2.4,44.1,24.96,273.41,83.98,92.65,0.0,995.82,0.0,55.701347,13.169366,214.19,NaN,,,60.290325,,0 / 0,48829,2020-12-05 14:34:29:802
-2.7989,-14.0376,-1.2402,-0.9946,-9.7533,-0.2329,-2.2784,-2.1008,-0.5093,-0.3123,-0.3478,-0.123,0.0,3.18,43.68,26.64,265.85,84.0,99.96,0.0,995.81,0.0,55.701347,13.169366,214.19,NaN,,,60.290325,,0 / 0,48929,2020-12-05 14:34:29:902
-3.4669,-9.4358,-0.565,-1.0666,-9.7221,-0.7166,-3.0995,0.6693,-0.1525,-0.702,-0.1652,-0.0234,0.0,2.7,43.74,29.88,240.22,82.47,123.9,0.0,995.8,0.0,55.701347,13.169366,214.19,NaN,,,60.290325,,0 / 0,49029,2020-12-05 14:34:30:002
-1.1038,-9.3401,0.0168,-1.6775,-9.5958,-1.1299,0.9017,0.4257,0.8785,-0.2824,-0.0509,-0.0173,0.0,2.52,42.6,35.04,241.05,79.88,127.54,0.0,995.82,0.0,55.701347,13.169366,214.19,NaN,,,60.290325,,0 / 0,49129,2020-12-05 14:34:30:102
-2.4877,-9.1557,-1.5563,-1.6932,-9.574,-1.2814,-1.3308,0.1717,-0.1959,-0.4583,-0.525,-0.109,0.0,2.88,40.92,36.6,243.19,77.73,125.03,0.0,995.83,0.0,55.701347,13.169366,214.19,NaN,,,60.290325,,0 / 0,49230,2020-12-05 14:34:30:203
-2.265,-8.6242,-0.8356,-1.8244,-9.5037,-1.5878,-0.1461,0.7167,0.7475,-0.3435,-0.076,0.0505,0.0,5.34,39.42,39.42,238.56,76.24,130.24,0.0,995.79,0.0,55.701347,13.169366,214.19,NaN,,,60.290325,,0 / 0,49330,2020-12-05 14:34:30:303
-3.9362,-9.1916,-1.4509,-2.0527,-9.4525,-1.6147,-1.8213,0.2297,0.2978,-0.0533,0.0645,0.1525,0.0,4.86,38.64,40.8,238.53,74.56,128.19,0.0,995.78,0.0,55.701347,13.169366,214.19,NaN,,,60.290325,,0 / 0,49429,2020-12-05 14:34:30:402
-0.8308,-11.0496,-0.9888,-2.2949,-9.3862,-1.6743,1.0284,-1.0672,0.9249,-0.1407,0.6057,0.1977,0.0,4.02,37.68,40.98,243.18,73.65,126.07,0.0,995.77,0.0,55.701347,13.169366,214.19,NaN,,,60.290325,,0 / 0,49528,2020-12-05 14:34:30:501
-2.4086,-9.0192,-0.067,-2.1381,-9.3633,-1.9819,-0.2705,0.344,1.9148,-0.2341,0.5159,0.048,0.0,-0.12,36.0,42.0,243.68,72.84,128.89,0.0,995.78,0.0,55.701347,13.169366,214.19,NaN,,,60.290325,,0 / 0,49629,2020-12-05 14:34:30:602
-1.0008,-10.6521,-1.6712,-2.1528,-9.3624,-1.9699,1.152,-1.2897,0.2987,0.1025,-0.3704,0.1885,0.0,-2.64,34.92,42.54,245.14,72.68,133.05,0.0,995.8,0.0,55.701347,13.169366,214.19,NaN,,,60.290325,,0 / 0,49729,2020-12-05 14:34:30:702
-2.5427,-7.3768,-2.5236,-2.1681,-9.4191,-1.6581,-0.3746,2.0424,-0.8655,0.5081,-0.671,-0.3979,0.0,-4.14,35.16,43.38,249.53,72.83,130.14,0.0,995.8,0.0,55.701347,13.169366,214.19,NaN,,,60.290325,,0 / 0,49829,2020-12-05 14:34:30:802
-0.0479,-12.1629,-2.6074,-2.1914,-9.5333,-0.6958,1.6766,-2.3758,-1.6889,1.089,-1.2244,-0.0259,0.0,-3.72,37.26,40.32,254.93,74.88,125.18,0.0,995.8,0.0,55.701347,13.169366,214.19,NaN,,,60.290325,,0 / 0,49928,2020-12-05 14:34:30:901
-0.9002,-9.0504,-0.0575,-1.5634,-9.6722,-0.4175,1.1732,0.5021,0.5946,0.472,-1.3674,-0.4449,0.0,-2.64,39.54,35.82,271.85,79.06,105.23,0.0,995.8,0.0,55.701347,13.169366,214.19,NaN,,,60.290325,,0 / 0,50029,2020-12-05 14:34:31:002
-2.1405,-8.5571,-0.0144,-1.1692,-9.736,0.1164,-0.9973,1.1812,-0.181,0.4482,-0.8567,-0.3142,0.0,-0.24,41.1,32.4,271.88,81.65,99.97,0.0,995.78,0.0,55.701347,13.169366,214.19,NaN,,,60.290325,,0 / 0,50129,2020-12-05 14:34:31:102
-1.2666,-9.3688,0.9864,-1.2619,-9.7199,0.319,-0.1199,0.4465,0.4612,-0.1217,-0.831,0.3168,0.0,1.14,42.12,29.64,293.06,82.91,74.07,0.0,995.79,0.0,55.701347,13.169366,214.19,NaN,,,60.290325,,0 / 0,50228,2020-12-05 14:34:31:201
1.2235,-11.0951,0.5291,-1.4672,-9.6836,0.4955,2.1206,-1.5507,0.2636,-0.0478,-0.9477,-0.0259,0.0,4.5,41.22,30.0,288.53,81.68,76.43,0.0,995.81,0.0,55.701347,13.169366,214.19,NaN,,,60.290325,,0 / 0,50328,2020-12-05 14:34:31:301
-4.4318,-17.6937,-1.3935,-1.137,-9.7051,0.8294,-4.7964,-5.1416,-1.7103,0.279,-0.7052,-0.7174,0.0,7.02,40.38,26.1,292.11,81.98,63.8,0.0,995.81,0.0,55.701347,13.169366,214.19,NaN,,,60.290325,,0 / 0,50429,2020-12-05 14:34:31:402
-3.7159,-8.945,-2.7462,-0.6856,-9.7823,0.0875,-3.0304,0.8372,-2.8337,-1.2622,0.1549,0.1549,0.0,7.02,39.84,24.96,303.8,83.21,48.84,0.0,995.8,0.0,55.701347,13.169366,214.19,NaN,,,60.290325,,0 / 0,50529,2020-12-05 14:34:31:502
-1.3576,-8.1262,1.6161,-1.2578,-9.7016,-0.6835,-0.0998,1.5754,2.2996,-0.2488,-0.4602,0.2331,0.0,7.68,37.38,28.14,234.58,81.61,118.52,0.0,995.81,0.0,55.701347,13.169366,214.19,NaN,,,60.290325,,0 / 0,50629,2020-12-05 14:34:31:602
-3.0623,-8.2315,-0.5172,-1.6427,-9.612,-1.04,-1.4195,1.3805,0.5228,-0.6715,-0.032,0.2545,0.0,10.98,37.14,26.76,232.37,80.15,118.19,0.0,995.81,0.0,55.701347,13.169366,214.19,NaN,,,60.290325,,0 / 0,50728,2020-12-05 14:34:31:701
-2.3703,-10.1086,-1.846,-1.8982,-9.5172,-1.4108,-0.5823,-0.9075,-0.3083,-0.545,0.5349,0.2563,0.0,10.86,35.04,29.04,224.66,76.04,126.62,0.0,995.83,0.0,55.701347,13.169366,214.19,NaN,,,60.290325,,0 / 0,50828,2020-12-05 14:34:31:801
-0.5291,-9.1006,-0.2753,-2.1126,-9.3616,-2.0169,1.5834,0.2609,1.7415,-0.2543,0.9936,0.2747,0.0,11.34,32.28,30.3,220.51,74.07,131.28,0.0,995.76,0.0,55.701347,13.169366,214.19,NaN,,,60.290325,,0 / 0,50929,2020-12-05 14:34:31:902
-0.3639,-10.1924,-1.1995,-1.9185,-9.3809,-2.1185,1.5546,-0.8115,0.9189,-0.2592,0.351,0.1122,0.0,9.48,32.22,31.56,217.73,73.06,137.84,0.0,995.76,0.0,55.701347,13.169366,214.19,NaN,,,60.290325,,0 / 0,51029,2020-12-05 14:34:32:002
-5.4302,-9.4239,-4.0176,-1.8089,-9.5147,-1.5391,-4.7658,1.5226,-2.5527,0.9302,0.1598,-0.2128,0.0,10.02,33.36,30.3,218.24,74.84,134.16,0.0,995.77,0.0,55.701347,13.169366,214.19,NaN,,,60.290325,,0 / 0,51128,2020-12-05 14:34:32:101
1.7933,-11.1693,-2.9019,-2.1434,-9.5349,-0.8133,2.6725,-0.2577,-0.731,1.5685,-0.2647,0.0639,0.0,9.48,35.52,26.1,225.96,76.33,126.29,0.0,995.78,0.0,55.701347,13.169366,214.19,NaN,,,60.290325,,0 / 0,51229,2020-12-05 14:34:32:202
-1.6664,-8.7367,-0.3879,-1.5682,-9.6756,-0.3054,0.8068,0.97,-0.0178,0.5893,-0.1059,-0.6533,0.0,10.08,38.28,19.44,247.08,80.62,101.02,0.0,995.79,0.0,55.701347,13.169366,214.19,NaN,,,60.290325,,0 / 0,51329,2020-12-05 14:34:32:302
-0.5387,-10.0033,0.0527,-1.2514,-9.7252,0.1566,0.7031,-0.2763,-0.0675,-0.0044,-0.4016,0.1696,0.0,9.06,39.24,17.04,255.55,82.52,92.26,0.0,995.8,0.0,55.701347,13.169366,214.19,NaN,,,60.290325,,0 / 0,51428,2020-12-05 14:34:32:401
0.3496,-9.2012,1.9011,-1.3834,-9.7086,-0.0102,1.7246,0.5085,1.9097,-0.3001,-0.8707,0.1873,0.0,10.74,38.82,15.12,256.48,82.01,88.03,0.0,995.77,0.0,55.701347,13.169366,214.19,NaN,,,60.290325,,0 / 0,51529,2020-12-05 14:34:32:502
-5.9474,-19.4822,-2.526,-1.1734,-9.7214,0.5366,-4.8476,-9.7528,-3.0733,-0.2818,-0.5793,-0.7724,0.0,11.7,38.22,14.22,248.46,82.15,88.14,0.0,995.8,0.0,55.701347,13.169366,214.19,NaN,,,60.290325,,0 / 0,51628,2020-12-05 14:34:32:601
-0.8476,-8.3393,-2.0615,-0.8222,-9.7707,-0.1629,0.3889,0.9622,-1.221,-0.7259,-0.1896,-0.0827,0.0,12.9,39.0,12.9,246.76,84.94,78.25,0.0,995.8,0.0,55.701347,13.169366,214.19,NaN,,,60.290325,,0 / 0,51729,2020-12-05 14:34:32:702
-1.7119,-8.1908,0.1628,-1.1613,-9.6732,-1.1181,-0.5506,1.4824,1.2809,-0.4577,-0.3552,0.0444,0.0,14.7,38.16,14.88,188.8,83.32,130.12,0.0,995.79,0.0,55.701347,13.169366,214.19,NaN,,,60.290325,,0 / 0,51828,2020-12-05 14:34:32:801
-3.1317,-9.297,-1.6497,-1.5733,-9.5795,-1.3884,-1.5584,0.2825,-0.2613,-0.3899,0.194,0.2954,0.0,16.2,37.38,14.46,177.3,78.82,132.93,0.0,995.82,0.0,55.701347,13.169366,214.19,NaN,,,60.290325,,0 / 0,51928,2020-12-05 14:34:32:901
-2.2147,-9.7327,-0.1532,-1.9691,-9.4123,-1.9236,-0.2456,-0.3204,1.7704,-0.4803,0.8476,0.3596,0.0,16.02,35.88,15.36,180.79,74.87,132.73,0.0,995.8,0.0,55.701347,13.169366,214.19,NaN,,,60.290325,,0 / 0,52028,2020-12-05 14:34:33:001
-0.0623,-10.5516,-0.1868,-2.0726,-9.3449,-2.1324,2.0103,-1.2067,1.9456,-0.2769,0.5263,0.1262,0.0,16.56,34.74,18.24,182.7,72.13,135.24,0.0,995.77,0.0,55.701347,13.169366,214.19,NaN,,,60.290325,,0 / 0,52129,2020-12-05 14:34:33:102
-2.265,-11.3848,-2.8899,-1.9217,-9.4354,-1.8577,-0.1039,-2.1481,0.05,0.5881,-0.3851,0.0291,0.0,15.3,34.8,18.48,187.12,72.78,136.45,0.0,995.78,0.0,55.701347,13.169366,214.19,NaN,,,60.290325,,0 / 0,52229,2020-12-05 14:34:33:202
-3.4645,-6.6154,-2.8707,-1.8504,-9.5505,-1.2383,-1.6141,2.9351,-1.6324,1.2094,-0.5042,-0.079,0.0,13.98,35.22,16.02,204.58,76.88,123.79,0.0,995.79,0.0,55.701347,13.169366,214.19,NaN,,,60.290325,,0 / 0,52329,2020-12-05 14:34:33:302
0.3328,-9.3089,-2.2674,-1.8073,-9.6366,-0.2008,2.1401,0.3276,-2.0666,0.786,-0.4529,-0.4492,0.0,12.84,36.42,11.46,223.83,77.59,108.98,0.0,995.79,0.0,55.701347,13.169366,214.19,NaN,,,60.290325,,0 / 0,52428,2020-12-05 14:34:33:401
-2.0663,-10.0081,0.407,-1.3026,-9.7187,0.14,-0.7636,-0.2894,0.267,0.684,-0.9709,-0.2696,0.0,11.7,37.32,8.34,227.03,81.72,92.73,0.0,995.79,0.0,55.701347,13.169366,214.19,NaN,,,60.290325,,0 / 0,52528,2020-12-05 14:34:33:501
-0.7303,-9.4957,0.8548,-1.3261,-9.7109,0.3328,0.5958,0.2152,0.522,-0.327,-0.6526,0.3443,0.0,11.7,37.14,6.24,246.63,82.33,72.93,0.0,995.77,0.0,55.701347,13.169366,214.19,NaN,,,60.290325,,0 / 0,52628,2020-12-05 14:34:33:601
-0.4477,-9.5963,2.5547,-1.5298,-9.6829,0.2653,1.082,0.0867,2.2894,-0.0918,-0.7052,0.2087,0.0,13.26,35.46,6.12,233.16,80.89,80.16,0.0,995.78,0.0,55.701347,13.169366,214.19,NaN,,,60.290325,,0 / 0,52729,2020-12-05 14:34:33:702
